Time (s),Gyroscope X (deg/s),Gyroscope Y (deg/s),Gyroscope Z (deg/s),Accelerometer X (g),Accelerometer Y (g),Accelerometer Z (g),Magnetometer X (uT),Magnetometer Y (uT),Magnetometer Z (uT)
0,0.01644619,-0.1517251,0.1080897,0.001015204,-0.02045836,0.9970807,15.3017,0.4328527,-41.06483
0.010078907,0.01654156,-0.3308571,0.04700107,0.001496836,-0.01803474,0.9990417,15.30666,-0.3084283,-41.06782
0.020158291,0.1397353,0.02775334,0.04694203,0.001004352,-0.02387611,0.9902474,15.30666,-0.3084283,-41.06782
0.030237675,0.01659669,-0.09172359,0.04694056,-0.001427811,-0.01955863,0.9868692,15.30666,-0.3084283,-41.06782
0.040316582,0.01657585,-0.2112006,-0.01405207,-0.001897507,-0.019532,0.9912492,15.30666,-0.3084283,-41.06782
0.050395966,-0.1065821,0.1473159,0.0469376,5.35E-05,-0.02481734,0.9941354,15.30666,-0.3084283,-41.06782
0.060475349,0.01653421,-0.1514274,-0.07508455,-0.002864638,-0.01905347,0.9907663,14.92893,1.179976,-40.62602
0.070554256,0.07799502,-0.03185146,0.1690128,3.83E-05,-0.02000082,0.9931914,14.92893,1.179976,-40.62602
0.078113556,0.1395578,-0.03184022,0.1078816,-0.00188557,-0.01708175,0.9975901,14.92893,1.179976,-40.62602
0.08819294,-0.04517817,-0.03185653,-0.01414048,0.001499004,-0.01996975,0.9980567,14.92893,1.179976,-40.62602
0.098271847,-0.2298755,-0.03194784,-0.07517142,-0.001886814,-0.02096376,0.9936736,14.92893,1.179976,-40.62602
0.10835123,-0.1066236,0.08753434,-0.01416247,-0.00431247,-0.01808704,0.9912598,15.30895,0.4329805,-40.18955
0.118430614,-0.04510489,0.02769396,-0.07528921,0.003898778,-0.02096244,0.9931826,15.30895,0.4329805,-40.18955
0.128509521,0.01645266,0.206963,0.2297996,0.000524431,-0.02096196,0.9936717,15.30895,0.4329805,-40.18955
0.138589382,0.1394918,0.02764317,0.04667158,0.0005297,-0.02192047,0.9946392,15.30895,0.4329805,-40.18955
0.148668766,-0.1068417,0.08748899,-0.01441656,0.000530162,-0.02482898,0.9921885,15.30895,0.4329805,-40.18955
0.15874815,0.1396248,0.1470908,0.04657355,0.002464892,-0.02433029,0.9946231,15.3017,0.4328527,-41.06483
0.168827057,0.07800663,0.2068053,0.04649591,0.001487534,-0.02096424,0.9931844,15.3017,0.4328527,-41.06483
0.178906441,0.0780247,0.02754189,-0.0755257,-0.000923556,-0.02048079,0.9936758,15.3017,0.4328527,-41.06483
0.188985348,0.07804274,0.0275636,0.04647483,0.000993508,-0.01856534,0.9912528,15.3017,0.4328527,-41.06483
0.199064731,-0.04499904,-0.09181929,-0.01457471,-0.000921698,-0.0233863,0.9917117,15.3017,0.4328527,-41.06483
0.209144115,0.0781753,0.0874873,0.1073684,-0.002856429,-0.02388498,0.9892771,15.29922,0.8034935,-41.06334
0.219223022,0.0780191,0.08747122,-0.0147871,-0.000449831,-0.02098367,0.9902661,15.29922,0.8034935,-41.06334
0.229302406,0.01651693,0.08745519,-0.1369042,-0.003329997,-0.02289684,0.9931764,15.29922,0.8034935,-41.06334
0.23938179,0.1397687,0.08734532,0.2291765,4.30E-05,-0.01853607,0.9961199,15.29922,0.8034935,-41.06334
0.249460697,0.07813092,-0.09186183,-0.01507608,0.001491874,-0.02046999,0.9951339,15.29674,1.174134,-41.06185
0.259540081,0.01651256,0.027583,-0.01517215,-0.000442701,-0.02048343,0.9931889,15.29674,1.174134,-41.06185
0.269619465,0.07810876,-0.03214453,0.1678396,-0.001416497,-0.01904939,0.9912518,15.29674,1.174134,-41.06185
0.279698372,-0.1066661,-0.2112391,-0.01526807,-0.000433563,-0.0267677,0.9907176,15.29674,1.174134,-41.06185
0.289777756,-0.1682457,0.08764075,0.1067335,-0.001402396,-0.02289841,0.9926884,15.29674,1.174134,-41.06185
0.299857139,0.1396828,-0.1514285,-0.0153638,0.000501188,-0.01519294,0.9907872,15.30647,0.8036213,-40.18806
0.309936046,0.01640888,0.1476014,0.04572334,0.001966219,-0.01903187,0.9936823,15.30647,0.8036213,-40.18806
0.32001543,0.1395061,0.1475474,-0.07637393,3.86E-05,-0.02339457,0.9902511,15.30647,0.8036213,-40.18806
0.330094337,0.1394662,-0.03182922,0.1067914,-0.002850383,-0.02241723,0.9926924,15.30647,0.8036213,-40.18806
0.340173721,-0.1069639,-0.09172609,0.1677634,4.76E-05,-0.02143558,0.9951291,15.30647,0.8036213,-40.18806
0.350253105,-0.045348,0.0276623,-0.01542079,-0.00189704,-0.01807625,0.992718,15.30533,0.4329166,-40.62719
0.360332012,-0.04540709,0.08737674,0.2287358,-0.001416963,-0.02050514,0.9897831,15.30533,0.4329166,-40.62719
0.370411396,-0.04535008,-0.2113101,0.1066003,-0.001409833,-0.02000489,0.9927059,15.30533,0.4329166,-40.62719
0.380491257,-0.106794,-0.09177148,-0.01553513,0.006309249,-0.01902264,0.9946524,15.30533,0.4329166,-40.62719
0.388050556,-0.04515383,0.02777582,-0.07655001,0.002458228,-0.02337478,0.9931691,15.30533,0.4329166,-40.62719
0.39812994,-0.2298899,0.207026,0.04550932,0.000521334,-0.0175742,0.9956388,14.92893,1.179976,-40.62602
0.408208847,0.07799996,-0.03206187,-0.01555818,0.001484122,-0.02291124,0.990253,14.92893,1.179976,-40.62602
0.418288231,-0.1682756,0.02774633,-0.07664482,-0.001412778,-0.02049614,0.9912429,14.92893,1.179976,-40.62602
0.428367138,0.07807469,0.08732933,0.106425,3.61E-05,-0.01806581,0.9941763,14.92893,1.179976,-40.62602
0.438446522,0.07809266,0.02756429,-0.07673973,-0.001910216,-0.02004424,0.98638,14.92893,1.179976,-40.62602
0.448525905,0.1396115,0.02762349,0.1063877,0.003420092,-0.02289481,0.9926847,15.30533,0.4329166,-40.62719
0.458604812,0.01641506,0.02772017,0.04533959,0.002461485,-0.02191303,0.995611,15.30533,0.4329166,-40.62719
0.468684196,0.07799202,-0.09185053,0.1063505,-0.000927433,-0.02388354,0.9892756,15.30533,0.4329166,-40.62719
0.47876358,-0.04512706,0.02765063,-0.1988348,-0.002380066,-0.02050286,0.9902706,15.30533,0.4329166,-40.62719
0.488842487,-0.1683623,0.2067884,0.2284298,0.001002184,-0.0219411,0.9912323,15.30533,0.4329166,-40.62719
0.498921871,0.0163712,0.02743121,0.1673051,-0.000919677,-0.01707803,0.9980761,15.67429,0.7977791,-40.62389
0.509001255,-0.1068059,-0.03227734,0.1671716,5.06E-05,-0.02094433,0.9965921,15.67429,0.7977791,-40.62389
0.519080162,-0.04513215,-0.1516976,0.1059896,-0.002362861,-0.01901112,0.9975788,15.67429,0.7977791,-40.62389
0.529159546,0.07800363,-0.03219637,0.04486532,-0.000430147,-0.02045644,0.9975685,15.67429,0.7977791,-40.62389
0.539238453,0.01640476,0.0871548,-0.07721172,0.003417613,-0.0219303,0.9926905,15.67429,0.7977791,-40.62389
0.549317837,-0.1681572,-0.09203334,-0.0162194,-0.003329687,-0.02192634,0.9941555,14.92282,1.550552,-41.06217
0.559397697,0.07825095,0.08725474,0.04481132,-0.005269218,-0.02001077,0.9922222,14.92282,1.550552,-41.06217
0.569477081,-0.1064854,-0.09208363,0.04471669,-0.004796423,-0.01906091,0.9897945,14.92282,1.550552,-41.06217
0.579555988,-0.1064097,0.1471038,0.1667195,0.001485827,-0.02193774,0.9917186,14.92282,1.550552,-41.06217
0.589635372,0.07830401,-0.0322159,-0.1385224,-0.000937967,-0.01760227,0.9912602,14.92282,1.550552,-41.06217
0.599714756,0.01666606,0.02747994,0.1666458,0.001014583,-0.02239936,0.9951226,16.04572,0.7920012,-40.62208
0.609793663,0.01654843,0.2067492,-0.07768156,0.001966064,-0.01951712,0.9931929,16.04572,0.7920012,-40.62208
0.619873047,0.01658565,-0.1517616,0.04451336,-0.00044534,-0.02436844,0.9887857,16.04572,0.7920012,-40.62208
0.629952431,-0.1065917,0.2067365,-0.2607093,0.002463497,-0.02433329,0.9941365,16.04572,0.7920012,-40.62208
0.640031338,-0.04497625,-0.0920627,0.04442079,-0.000944319,-0.01567627,0.9907854,16.04572,0.7920012,-40.62208
0.650110722,0.01658115,-0.15164,0.1053178,-0.000438823,-0.01708067,0.9975891,15.29788,1.544838,-40.62272
0.660189629,-0.229714,0.02770426,-0.07786466,0.004376376,-0.02242683,0.9902537,15.29788,1.544838,-40.62272
0.670269012,-0.04482608,-0.03206097,0.1052258,0.000518696,-0.02145921,0.9912356,15.29788,1.544838,-40.62272
0.680348396,0.07844472,-0.2710175,0.04406416,-0.000456028,-0.01857241,0.9902807,15.29788,1.544838,-40.62272
0.690427303,0.01682595,-0.03183042,0.1661445,0.005364897,-0.02140462,0.9995048,15.29788,1.544838,-40.62272
0.700506687,-0.1677172,0.1474384,-0.01699939,0.005833042,-0.02191951,0.9941485,15.67066,0.7977152,-41.06153
0.708065987,-0.1061163,0.08766289,0.1049798,-0.000449516,-0.01564891,0.9951646,15.67066,0.7977152,-41.06153
0.718145847,0.01705743,-0.09163849,-0.07822144,-0.002866651,-0.01663321,0.9922408,15.67066,0.7977152,-41.06153
0.728224277,0.07869159,-0.03196189,-0.01715118,0.000529229,-0.02774048,0.9892511,15.67066,0.7977152,-41.06153
0.738304138,0.07868946,-0.03194054,0.1659014,0.001483655,-0.024367,0.9887842,15.67066,0.7977152,-41.06153
0.748383522,-0.04450788,-0.09161209,0.2878478,0.005811038,-0.01663273,0.9912609,15.30895,0.4329805,-40.18955
0.758462429,-0.04454866,0.08776927,0.1044744,0.002944666,-0.01900116,0.9985481,15.30895,0.4329805,-40.18955
0.768541813,0.01706622,-0.0914572,0.3485379,0.001474979,-0.02099123,0.9888047,15.30895,0.4329805,-40.18955
0.778621197,-0.106015,-0.151129,0.04325921,4.76E-05,-0.02143558,0.9951291,15.30895,0.4329805,-40.18955
0.788700104,0.1404118,0.2072932,0.1042536,0.000999243,-0.01806809,0.9936889,15.30895,0.4329805,-40.18955
0.798779488,-0.1059421,0.02801047,0.04315064,-0.002372781,-0.01951737,0.9936827,15.30285,0.8035574,-40.6257
0.808858871,0.01736674,0.08779956,0.04311559,-0.00042829,-0.02336194,0.9956045,15.30285,0.8035574,-40.6257
0.818937778,0.01730621,0.2669931,-0.07892092,-0.000441773,-0.02193618,0.9922068,15.30285,0.8035574,-40.6257
0.829017162,0.01730379,-0.0914808,-0.07905178,0.000523191,-0.02047971,0.9936747,15.30285,0.8035574,-40.6257
0.839096546,0.01734007,0.2670729,0.1039444,0.00389382,-0.01903343,0.9931943,14.55386,1.18569,-41.06548
0.849175453,0.2020724,-0.09149495,0.1649775,0.002930251,-0.02048691,0.992213,14.55386,1.18569,-41.06548
0.859254837,0.1404531,0.02808082,-0.1402048,0.000519624,-0.02291196,0.9902537,14.55386,1.18569,-41.06548
0.869333744,-0.1059589,-0.09143406,-0.07921001,-0.002832564,-0.02771301,0.99412,14.55386,1.18569,-41.06548
0.879413128,-0.04432493,-0.09139428,0.04283354,-0.000920766,-0.02047479,0.9946491,14.55386,1.18569,-41.06548
0.889492512,0.01725096,0.08778045,0.04277973,0.001482727,-0.02291424,0.9897663,15.30285,0.8035574,-40.6257
0.899571419,0.07882689,0.2072436,0.042726,0.003905135,-0.01852419,0.997577,15.30285,0.8035574,-40.6257
0.909650803,0.1404028,-0.09134976,-0.01835721,-0.001874419,-0.02578628,0.9936443,15.30285,0.8035574,-40.6257
0.919730186,-0.16751,0.08797501,-0.01831498,0.001482109,-0.02049099,0.9917274,15.30285,0.8035574,-40.6257
0.929809093,0.1403789,-0.03148372,-0.01833031,0.000524586,-0.02047671,0.9941614,15.30285,0.8035574,-40.6257
0.939888477,0.1403379,0.02851144,0.1646471,0.000516528,-0.0195242,0.9922207,15.67677,0.4271383,-40.62538
0.949967861,-0.1059772,-0.03123602,-0.07958193,0.002459778,-0.02288653,0.9941452,15.67677,0.4271383,-40.62538
0.960046768,0.07883255,-0.03123432,0.2255697,0.003888085,-0.01953068,0.9907583,15.67677,0.4271383,-40.62538
0.970126152,-0.04442296,-0.03132642,0.2255547,3.16E-05,-0.01904531,0.9917373,15.67677,0.4271383,-40.62538
0.980206013,0.01719176,-0.09097998,-0.07964614,-0.000918442,-0.02192454,0.9941537,15.67677,0.4271383,-40.62538
0.990285397,-0.04440806,-0.03121035,0.1034083,0.002444439,-0.01855526,0.9927117,15.66818,1.168356,-41.06004
1.000364304,0.01714861,-0.0313025,0.1033167,-0.002356357,-0.02481614,0.9946238,15.66818,1.168356,-41.06004
1.010443687,0.01714642,0.02856106,0.04219579,-0.002855185,-0.02000297,0.9931936,15.66818,1.168356,-41.06004
1.020522594,-0.04443401,0.2675595,0.1031148,-0.001906493,-0.01712674,0.9902906,15.66818,1.168356,-41.06004
1.030601978,0.07870094,0.02852688,-0.01901622,0.000997071,-0.02049734,0.9907546,15.66818,1.168356,-41.06004
1.038161278,0.01700985,0.02851877,0.1030799,-0.000930219,-0.01952528,0.9922218,15.29922,0.8034935,-41.06334
1.048240662,-0.2908641,0.5662256,0.1030846,4.56E-05,-0.01901532,0.9966038,15.29922,0.8034935,-41.06334
1.058319569,0.01712174,0.08810261,0.04198313,-0.006220234,-0.02143725,0.9956206,15.29922,0.8034935,-41.06334
1.068398953,-0.1060563,-0.1508922,0.04196873,-0.001417123,-0.02535465,0.9853742,15.29922,0.8034935,-41.06334
1.07847786,0.1402739,0.02841353,-0.01913267,0.000534972,-0.01851471,0.999526,15.29922,0.8034935,-41.06334
1.088557243,0.01715391,-0.03142764,-0.01908948,-0.000920615,-0.0243538,0.9912192,16.04572,0.7920012,-40.62208
1.098636627,0.07871061,0.02841735,0.1030702,0.000514209,-0.01371019,0.9966356,16.04572,0.7920012,-40.62208
1.108715534,0.07865042,-0.2704394,0.1640277,-0.001425955,-0.02246414,0.9849051,16.04572,0.7920012,-40.62208
1.118794918,0.01693469,-0.210632,0.1639367,-0.001921064,-0.01909773,0.9834661,16.04572,0.7920012,-40.62208
1.128874302,-0.1678987,-0.2105363,-0.1412634,0.000535586,-0.02530223,0.9936454,16.04572,0.7920012,-40.62208
1.138953209,-0.1062256,-0.1505977,-0.08026731,0.000560538,-0.0257335,1.001915,14.92778,0.8092713,-41.06516
1.149032593,-0.1677478,-0.09073444,-0.01930948,-0.000424097,-0.01462443,1.004903,14.92778,0.8092713,-41.06516
1.159111976,0.07873724,0.02870904,0.04170596,4.45E-05,-0.02241207,0.9931768,14.92778,0.8092713,-41.06516
1.169191837,-0.04457614,0.08840339,-0.01939511,0.002421343,-0.0210295,0.9824778,14.92778,0.8092713,-41.06516
1.179270744,0.2018508,-0.03099963,0.04156293,0.000978782,-0.02102158,0.9839388,14.92778,0.8092713,-41.06516
1.189350128,0.01701728,-0.1504215,0.1636273,5.55E-05,-0.02287333,0.9965804,15.68039,0.4272022,-40.18774
1.199429512,-0.1060252,0.2081311,0.04147773,5.50E-05,-0.02432909,0.9951116,15.68039,0.4272022,-40.18774
1.209508419,-0.1059307,-0.0308831,0.1635038,0.003421491,-0.01852755,0.9970906,15.68039,0.4272022,-40.18774
1.219587803,0.01720416,0.148347,0.1023648,2.14E-05,-0.0161578,0.9907817,15.68039,0.4272022,-40.18774
1.22966671,-0.04431834,-0.03104937,0.2854781,7.62E-06,-0.0200668,0.9824855,15.68039,0.4272022,-40.18774
1.239746094,0.01729622,-0.03091659,-0.01974055,-0.00046486,-0.0156819,0.9898117,15.67429,0.7977791,-40.62389
1.249825477,0.1404503,0.08865813,0.1022858,-0.00140177,-0.01659314,0.998566,15.67429,0.7977791,-40.62389
1.259904384,0.2019875,0.02883511,0.1021956,0.001499777,-0.02190775,0.9965851,15.67429,0.7977791,-40.62389
1.269983768,-0.04436644,0.02872385,0.04111442,0.002441338,-0.01953176,0.9907594,15.67429,0.7977791,-40.62389
1.280063152,0.01724819,0.02870653,-0.1419683,-0.001424093,-0.02100539,0.9868605,15.29674,1.174134,-41.06185
1.290142059,0.01722651,0.2677798,0.1632235,-0.001395267,-0.02239816,0.9956111,15.29674,1.174134,-41.06185
1.300221443,0.07876377,0.02880327,0.04107443,0.00149234,-0.01901424,0.9966027,15.29674,1.174134,-41.06185
1.310300827,-0.229091,-0.2699413,-0.02002583,-0.005743875,-0.02241939,0.9926946,15.29674,1.174134,-41.06185
1.320379734,0.07891388,-0.0306618,-0.02000067,-0.000925106,-0.02096904,0.9926997,15.29674,1.174134,-41.06185
1.330459118,0.3251857,-0.03067959,0.04101563,-0.000440222,-0.02144793,0.993183,15.29674,1.174134,-41.06185
1.340538025,-0.105903,-0.1502145,-0.08105658,0.001476374,-0.02098824,0.9892913,15.29674,1.174134,-41.06185
1.348097324,-0.1674201,0.0291183,-0.02000821,-0.001407817,-0.01806089,0.9951507,15.29674,1.174134,-41.06185
1.358177185,0.07902581,0.02910048,0.04102726,0.001498537,-0.0214255,0.9965881,15.29674,1.174134,-41.06185
1.368256569,0.01740633,0.3875778,0.04103323,0.002915373,-0.01906415,0.9883288,15.29674,1.174134,-41.06185
1.378335953,0.01736513,-0.2699061,-0.02000948,0.000501495,-0.01858669,0.9878469,15.30399,1.174262,-40.18657
1.38841486,0.0788829,-0.150125,-0.01994601,-0.001409526,-0.02339865,0.9897655,15.30399,1.174262,-40.18657
1.398494243,-0.1674518,0.08906031,0.2852074,-0.003339913,-0.01903883,0.9931998,15.30399,1.174262,-40.18657
1.408573627,0.01726115,0.2682336,0.1630585,0.001498071,-0.02288125,0.9951193,15.30399,1.174262,-40.18657
1.418652534,0.07875969,-0.09041083,0.04090969,-0.005757665,-0.01759987,0.9922372,15.30399,1.174262,-40.18657
1.428731918,0.01719857,-0.09035355,-0.02019039,0.000523502,-0.01950921,0.9946539,15.6718,1.16842,-40.6224
1.438810825,0.1402754,-0.03056594,-0.02029922,2.13E-05,-0.01664305,0.9902921,15.6718,1.16842,-40.6224
1.448890209,-0.2291962,-0.03043372,0.162834,-0.005727754,-0.01996015,1.000495,15.6718,1.16842,-40.6224
1.458969593,-0.04438629,-0.1499689,-0.02036327,-0.004286584,-0.01560681,1.002467,15.6718,1.16842,-40.6224
1.4690485,0.01722836,-0.03050738,0.1017788,4.28E-05,-0.01902132,0.9956304,15.6718,1.16842,-40.6224
1.479127884,-0.1673927,0.0888792,-0.08130335,-0.001409833,-0.02000489,0.9927059,15.30285,0.8035574,-40.6257
1.489207268,-0.04416126,0.02911218,-0.08127789,0.003901874,-0.0243502,0.9912155,15.30285,0.8035574,-40.6257
1.499286175,-0.2904961,-0.2098085,0.04078741,-0.000906666,-0.02432381,0.9960855,15.30285,0.8035574,-40.6257
1.509365559,-0.04416639,0.08906957,0.04077451,6.26E-05,-0.02237309,0.999503,15.30285,0.8035574,-40.6257
1.519444942,0.01735128,-0.03048438,0.04072326,0.003428927,-0.02142106,0.9970731,15.30285,0.8035574,-40.6257
1.529523849,0.01740683,0.1486326,0.2848285,-0.003326746,-0.02579936,0.9916989,14.92893,1.179976,-40.62602
1.539603233,0.2019843,0.2082889,0.1016889,0.004369401,-0.02244183,0.9878205,14.92893,1.179976,-40.62602
1.54968214,-0.04433096,-0.03081937,0.101657,3.61E-05,-0.01806581,0.9941763,14.92893,1.179976,-40.62602
1.559761524,-0.04427526,-0.03081819,0.04057643,-0.000915648,-0.01755429,0.9990464,14.92893,1.179976,-40.62602
1.569840908,0.07887882,-0.03079823,0.04058296,-0.002851618,-0.01757072,0.9966148,14.92893,1.179976,-40.62602
1.579919815,-0.04433805,0.08877635,0.04060866,0.000517767,-0.02000646,0.9922178,15.29674,1.174134,-41.06185
1.589999199,0.01725722,0.1484328,0.1016638,-0.000924648,-0.02824181,0.9863295,15.29674,1.174134,-41.06185
1.600078583,-0.1058822,-0.1505183,0.1015553,-0.000455722,-0.02196617,0.9873404,15.29674,1.174134,-41.06185
1.61015749,-0.04430636,-0.09063639,0.04043655,0.004391097,-0.02433485,0.9936483,15.29674,1.174134,-41.06185
1.62023735,0.01736622,0.02897582,0.04032824,-0.001398212,-0.02288941,0.9941482,15.29674,1.174134,-41.06185
1.630316734,0.01746044,0.08865108,-0.02067528,-0.006698759,-0.01852011,0.9995316,15.6718,1.16842,-40.6224
1.640396118,-0.0441784,0.1484766,0.1624201,-0.001415724,-0.0209874,0.9897802,15.6718,1.16842,-40.6224
1.650475025,0.07911091,-0.3294782,-0.0208533,0.002930095,-0.02097216,0.9917234,15.6718,1.16842,-40.6224
1.660554409,0.1407445,-0.03061872,0.04027907,0.002949775,-0.02480918,0.9951064,15.6718,1.16842,-40.6224
1.668113708,0.1408053,0.08887096,0.1012706,-0.000896128,-0.02624082,0.9980204,15.6718,1.16842,-40.6224
1.678192615,-0.1054911,0.2083515,-0.02081976,-0.003344098,-0.01904783,0.9917399,15.3017,0.4328527,-41.06483
1.688271999,0.2023972,0.02897362,-0.02085112,-0.002383318,-0.01760035,0.9917479,15.3017,0.4328527,-41.06483
1.698351383,-0.0439766,-0.03077445,0.04020456,0.001011331,-0.01949685,0.9966002,15.3017,0.4328527,-41.06483
1.70843029,0.1408907,-0.09057881,0.1011836,-0.001407199,-0.02048415,0.9931896,15.3017,0.4328527,-41.06483
1.718509674,-0.04388559,0.02899579,0.1010949,-0.000432471,-0.01900668,0.998064,15.3017,0.4328527,-41.06483
1.728589058,0.01770911,0.02901567,0.04001502,0.000512498,-0.01904795,0.9912503,15.29426,1.544774,-41.06036
1.738667965,0.07932314,0.08869087,0.0399456,0.001475912,-0.01807973,0.9917421,15.29426,1.544774,-41.06036
1.748747349,-0.04387495,0.08865453,0.03991459,2.64E-05,-0.0180868,0.99077,15.29426,1.544774,-41.06036
1.758826256,0.01771971,0.1484237,-0.02110755,0.000540703,-0.02238172,0.9980428,15.29426,1.544774,-41.06036
1.76890564,0.01779415,0.1483874,0.1009205,0.002461174,-0.02288353,0.9946319,15.29426,1.544774,-41.06036
1.778985023,0.01790718,0.02868391,-0.02111193,-0.000908678,-0.02190355,0.9975601,15.30037,1.174198,-40.62421
1.78906393,0.07955963,0.08835952,0.03979081,0.001487218,-0.026299,0.988286,15.30037,1.174198,-40.62421
1.799143791,0.1410186,0.08830479,-0.02134619,-0.003822468,-0.01564544,0.9961404,15.30037,1.174198,-40.62421
1.809223175,0.07935998,0.08826894,0.03965262,-0.000917354,-0.01852779,0.9975806,15.30037,1.174198,-40.62421
1.819302559,0.01768205,0.02852145,-0.0214267,-0.002379133,-0.01759136,0.9932079,15.30037,1.174198,-40.62421
1.829381466,-0.2286725,0.3271565,-0.02145729,-0.000447197,-0.02146293,0.9907499,15.67429,0.7977791,-40.62389
1.83946085,-0.1054028,0.08803034,0.1005137,-0.004778446,-0.01950717,0.9956312,15.67429,0.7977791,-40.62389
1.849540234,-0.04375018,0.2672611,-0.02157575,-0.000924177,-0.02242179,0.9917176,15.67429,0.7977791,-40.62389
1.859619141,-0.1052541,0.08792184,0.1004145,-0.004288454,-0.02579408,0.992673,15.67429,0.7977791,-40.62389
1.869698524,-0.04377574,0.1476544,-0.1437146,-0.000939517,-0.01809052,0.9902841,15.67314,0.4270744,-41.06302
1.879777908,0.01774142,0.2073495,0.2224704,0.002926839,-0.02243391,0.9892814,15.67314,0.4270744,-41.06302
1.889856815,-0.04383978,0.08779711,0.0393133,0.00292715,-0.02146341,0.9902606,15.67314,0.4270744,-41.06302
1.899936199,-0.04382338,-0.1510659,-0.08289093,0.004871023,-0.02288473,0.9941434,15.67314,0.4270744,-41.06302
1.910015106,0.07934946,-0.2107004,0.1001484,0.001006679,-0.0209616,0.9936714,15.67314,0.4270744,-41.06302
1.92009449,-0.04392604,-0.1508179,-0.02190223,-0.000921383,-0.01805153,0.9966104,14.92893,1.179976,-40.62602
1.930173874,-0.2285862,0.08819938,0.100146,-0.000936572,-0.01759927,0.9917468,14.92893,1.179976,-40.62602
1.940252781,0.07928265,-0.09100884,0.03904818,0.004849792,-0.01953596,0.9897842,14.92893,1.179976,-40.62602
1.950332165,-0.04389609,0.1478958,0.03897996,-0.0042931,-0.02289457,0.9936637,14.92893,1.179976,-40.62602
1.960411549,0.0176986,-0.09111784,-0.1441001,-0.000430303,-0.02094169,0.997079,14.92893,1.179976,-40.62602
1.970490456,-0.04378582,-0.03146065,0.1610943,-0.000929753,-0.01806953,0.9936904,15.66818,1.168356,-41.06004
1.978049755,0.01779498,0.1476852,0.1000089,0.000524431,-0.02096196,0.9936717,15.66818,1.168356,-41.06004
1.988129139,-0.04396032,0.08784433,0.1608936,-0.002378205,-0.01904411,0.9922258,15.66818,1.168356,-41.06004
1.998209,-0.04386641,0.08788412,-0.08336902,-0.001416808,-0.02001989,0.9902727,15.66818,1.168356,-41.06004
2.008287907,0.07928718,0.2073471,-0.02234979,0.002465669,-0.02190403,0.9970708,15.66818,1.168356,-41.06004
2.018367291,0.1408238,0.08779476,-0.02245589,-0.001884797,-0.01901976,0.9961185,14.92893,1.179976,-40.62602
2.028446674,-0.1055887,0.147565,0.0995355,0.001960329,-0.02001437,0.9907568,14.92893,1.179976,-40.62602
2.038525581,0.1407796,0.08763049,-0.08352475,0.001503029,-0.02481026,0.9951075,14.92893,1.179976,-40.62602
2.048604965,-0.04403529,-0.03182784,0.09943873,0.000527687,-0.01950021,0.9961137,14.92893,1.179976,-40.62602
2.058684349,0.07913778,-0.09163088,-0.02270687,0.003412655,-0.0200013,0.9927022,14.92893,1.179976,-40.62602
2.068763256,0.07921241,0.1473684,0.03831284,-0.002367206,-0.02386963,0.9917099,14.93504,0.8093991,-40.18987
2.07884264,-0.04398551,0.1472208,-0.02264978,-0.002853639,-0.02387898,0.9902504,14.93504,0.8093991,-40.18987
2.088922024,0.1407464,-0.09184828,-0.02264051,5.19E-05,-0.02094133,0.9970786,14.93504,0.8093991,-40.18987
2.099000931,-0.1057046,0.1472075,0.0383791,0.001007764,-0.0219291,0.993179,14.93504,0.8093991,-40.18987
2.109080314,-0.04412897,-0.09188037,-0.0226986,0.000516994,-0.01806845,0.9936893,14.93504,0.8093991,-40.18987
2.119159221,0.07908291,0.02760207,-0.02270842,-0.001898439,-0.02244351,0.9883119,15.30037,1.174198,-40.62421
2.129238605,0.2022368,0.02758615,0.09935996,-0.005748682,-0.02436939,0.9892763,15.30037,1.174198,-40.62421
2.139317989,0.01755745,-0.09183428,-0.08373842,-0.002357131,-0.02287813,0.9960954,15.30037,1.174198,-40.62421
2.149396896,0.1405565,0.02774194,-0.0837099,-0.002853794,-0.02436424,0.9897608,15.30037,1.174198,-40.62421
2.15947628,-0.04427741,0.08751259,-0.08377728,-0.000931462,-0.02340729,0.9883053,15.30037,1.174198,-40.62421
2.169555664,0.07889602,0.08736516,-0.1448357,0.000537758,-0.02287297,0.99658,15.67677,0.4271383,-40.62538
2.179634571,-0.1058798,0.02763759,0.1603404,0.00100389,-0.0209676,0.9926982,15.67677,0.4271383,-40.62538
2.189713955,-0.04434261,0.08720193,0.03829085,-0.002375726,-0.02000861,0.99222,15.67677,0.4271383,-40.62538
2.199793339,0.01721398,-0.0322746,0.03826192,-0.000932387,-0.01759028,0.9932068,15.67677,0.4271383,-40.62538
2.209872246,0.07878994,0.08730182,0.09922418,-0.000446109,-0.01806617,0.9941767,15.67677,0.4271383,-40.62538
2.219951629,0.07869098,-0.03224995,-0.02286363,0.001975051,-0.02192239,0.9941515,15.30037,1.174198,-40.62421
2.230030536,0.01709127,0.02765232,-0.08390275,-0.001406115,-0.02145165,0.9926971,15.30037,1.174198,-40.62421
2.24010992,-0.106048,-0.2113229,0.03816583,0.001501016,-0.02239,0.9965822,15.30037,1.174198,-40.62421
2.250189304,0.017203,-0.03199751,-0.08390278,-0.000442546,-0.01999818,0.9936783,15.30037,1.174198,-40.62421
2.260268211,-0.1675533,0.02784816,0.2212927,0.003424125,-0.0190068,0.9975744,15.30037,1.174198,-40.62421
2.270348072,-0.2291145,0.2069857,0.09916654,-0.002371235,-0.02339337,0.9907396,15.30037,1.174198,-40.62421
2.280427456,0.2019502,-0.0917763,-0.1449994,0.000515288,-0.01904195,0.9922236,15.30037,1.174198,-40.62421
2.29050684,-0.04436501,-0.09181114,-0.02285407,-0.002360075,-0.02336938,0.9946327,15.30037,1.174198,-40.62421
2.300585747,0.2020617,-0.09186472,0.0381658,0.001002961,-0.01951485,0.9936802,15.30037,1.174198,-40.62421
2.308145046,-0.04430625,0.2068739,-0.02284217,0.000518851,-0.02097396,0.9917252,15.30037,1.174198,-40.62421
2.31822443,0.01732764,0.08720952,-0.02277514,-0.002373403,-0.02145837,0.9917245,15.30647,0.8036213,-40.18806
2.328303337,-0.1058893,0.08715627,0.1602845,-0.001402086,-0.0219279,0.9936674,15.30647,0.8036213,-40.18806
2.338382721,-0.2291062,0.02741022,0.1602174,-0.002843253,-0.02191699,0.9956151,15.30647,0.8036213,-40.18806
2.348462105,0.1403803,0.02735704,0.1600736,0.006787623,-0.01806077,0.9941712,15.30647,0.8036213,-40.18806
2.358541012,-0.04445332,0.02734147,0.09886222,-0.001406581,-0.0229074,0.9912283,15.30647,0.8036213,-40.18806
2.368620396,0.01714208,0.02736343,-0.08427382,5.09E-05,-0.02433809,0.9936516,14.93504,0.8093991,-40.18987
2.378699779,-0.1059973,0.02744164,-0.08430214,3.58E-05,-0.01903631,0.9931973,14.93504,0.8093991,-40.18987
2.388778686,-0.1060189,-0.09207247,0.3428378,-0.004785264,-0.01903691,0.9936875,14.93504,0.8093991,-40.18987
2.39885807,-0.04442352,0.02748525,-0.02350157,-0.00236705,-0.02338438,0.9921995,14.93504,0.8093991,-40.18987
2.408937454,-0.1060233,0.3261779,0.1595206,0.004372195,-0.01807157,0.9927132,14.93504,0.8093991,-40.18987
2.419016361,-0.04444734,0.02737879,0.09836743,0.001488155,-0.01902324,0.9951427,14.92778,0.8092713,-41.06516
2.429095745,-0.1061438,-0.03231097,0.1593117,-0.001877054,-0.02530702,0.9931607,14.92778,0.8092713,-41.06516
2.439174652,0.01706864,-0.03236423,0.0371676,-0.004310919,-0.01759879,0.9922361,14.92778,0.8092713,-41.06516
2.449254036,0.0785481,-0.03226728,0.09809293,-0.001910371,-0.0205295,0.9858904,14.92778,0.8092713,-41.06516
2.459333897,-0.04468771,0.2665004,0.03707435,-0.000413257,-0.02429945,0.9999783,15.30399,1.174262,-40.18657
2.46941328,0.01685,-0.09197289,-0.02400172,-0.002853479,-0.01902947,0.9946594,15.30399,1.174262,-40.18657
2.479492187,-0.1063663,0.0275284,0.09804912,3.77E-05,-0.02194182,0.9912331,15.30399,1.174262,-40.18657
2.489571571,0.01686575,0.08722425,0.03693479,-0.001870852,-0.02335403,0.9970654,15.30399,1.174262,-40.18657
2.499650955,0.0167672,0.02744056,-0.08517064,4.42E-05,-0.01901832,0.996117,15.30399,1.174262,-40.18657
2.509729862,0.07828571,-0.03236184,0.1589969,-0.000418375,-0.02721996,0.995581,15.66818,1.168356,-41.06004
2.519809246,0.01658979,-0.03228367,0.03696819,-0.000930841,-0.02146628,0.9902636,15.66818,1.168356,-41.06004
2.52988863,-0.1065875,0.08714265,0.09793209,0.003431717,-0.02141506,0.9980464,15.66818,1.168356,-41.06004
2.539967537,0.01664481,-0.0921956,0.09788576,-0.000432164,-0.02240044,0.9951236,15.66818,1.168356,-41.06004
2.550046921,0.01660457,0.08711148,0.1587732,4.19E-05,-0.01756856,0.9966125,15.66818,1.168356,-41.06004
2.560126305,0.01656436,0.08711465,0.0976592,-0.000912089,-0.02385055,0.9946286,14.93141,0.8093352,-40.62751
2.570205212,0.0165242,-0.1520478,0.09768987,0.001019385,-0.02481362,0.9946213,14.93141,0.8093352,-40.62751
2.580284595,0.2014122,-0.03262119,0.09758636,-0.001884335,-0.02192827,0.9936677,14.93141,0.8093352,-40.62751
2.590363502,0.01671461,0.02716897,0.03653011,-0.002360227,-0.01949037,0.9980626,14.93141,0.8093352,-40.62751
2.600442886,-0.04492329,0.08703415,-0.08555563,0.001964358,-0.02049063,0.9917271,14.93141,0.8093352,-40.62751
2.61052227,-0.2295629,0.08701868,0.09750622,0.002933818,-0.01805465,0.9956341,14.92778,0.8092713,-41.06516
2.61808157,0.0167149,0.08701175,0.0974527,0.002458073,-0.02386003,0.9926795,14.92778,0.8092713,-41.06516
2.628160477,0.1398311,-0.0326147,0.09731113,-0.002365962,-0.01998762,0.9956264,14.92778,0.8092713,-41.06516
2.63823986,-0.1064641,-0.2715893,0.2193055,0.002442267,-0.02098452,0.9897773,14.92778,0.8092713,-41.06516
2.648318767,-0.04481021,0.02721626,0.2192025,0.001487689,-0.02047899,0.9936739,14.92778,0.8092713,-41.06516
2.658398151,0.01676632,0.08689371,0.09705985,-0.000906354,-0.0233533,0.9970647,14.93141,0.8093352,-40.62751
2.668478012,0.01676459,0.08691591,0.1580441,-0.000923404,-0.0243598,0.990246,14.93141,0.8093352,-40.62751
2.678557396,-0.04493139,-0.2118829,0.218971,0.004376994,-0.02485009,0.9882925,14.93141,0.8093352,-40.62751
2.688636303,0.07828153,0.08692276,0.03577989,4.67E-05,-0.02434708,0.9921918,14.93141,0.8093352,-40.62751
2.698715687,-0.04495392,-0.03257215,-0.08630492,-0.002855962,-0.02242923,0.9907458,14.93141,0.8093352,-40.62751
2.708795071,-0.106437,-0.09222414,-0.02524365,0.004871645,-0.02094373,0.9961016,15.29674,1.174134,-41.06185
2.718873978,-0.04474444,-0.151895,0.09686622,-0.000931609,-0.01516402,0.9956546,15.29674,1.174134,-41.06185
2.728953361,0.01679331,0.02744952,0.03584921,0.000530321,-0.01997946,0.9965976,15.29674,1.174134,-41.06185
2.739032745,0.07836978,-0.0324092,0.09679535,-0.000935332,-0.01808153,0.9917439,15.29674,1.174134,-41.06185
2.749111652,0.07823269,0.1468228,0.09673126,0.0038949,-0.0243652,0.9887823,15.29674,1.174134,-41.06185
2.759191036,-0.1681592,-0.09218954,0.03563773,0.003435591,-0.02237657,0.9985272,16.0421,0.7919374,-41.05972
2.76927042,-0.0450816,0.1467166,0.03549711,-0.001402552,-0.02338366,0.9921987,16.0421,0.7919374,-41.05972
2.779349327,0.01647589,0.1467199,-0.02544283,-0.001403787,-0.01853715,0.996121,16.0421,0.7919374,-41.05972
2.789428711,0.07805279,0.02716864,-0.1475657,0.001491101,-0.01853199,0.9966056,16.0421,0.7919374,-41.05972
2.799507618,-0.04516305,0.1466517,0.03565067,4.59E-05,-0.02240908,0.9936633,16.0421,0.7919374,-41.05972
2.809587002,-0.04512565,0.08675583,0.09669289,-0.004313553,-0.01711954,0.9917523,14.92778,0.8092713,-41.06516
2.819666386,0.1395497,0.08672195,0.1576201,-0.002835661,-0.02432525,0.996087,14.92778,0.8092713,-41.06516
2.829745293,0.01635337,-0.03286656,0.0965651,-0.000439756,-0.01999218,0.9946517,14.92778,0.8092713,-41.06516
2.839824676,0.07791106,-0.09255569,0.1574925,0.001493113,-0.02095225,0.995131,14.92778,0.8092713,-41.06516
2.84990406,-0.04520791,0.08673307,0.03533147,-0.000918287,-0.02143929,0.9946433,14.92778,0.8092713,-41.06516
2.859982967,-0.10671,0.02681865,0.09637412,0.003418857,-0.0180483,0.9966071,14.55386,1.18569,-41.06548
2.870062351,-0.04511379,0.08653414,0.03524273,-0.004781084,-0.02339217,0.991228,14.55386,1.18569,-41.06548
2.880141735,0.0781187,-0.2121516,-0.08680306,0.002442884,-0.02340777,0.9878161,14.55386,1.18569,-41.06548
2.890220642,-0.1066368,0.146291,0.0353075,-0.001869306,-0.02723003,0.9941222,14.55386,1.18569,-41.06548
2.900300026,0.1396941,0.08645187,0.09619681,0.000537136,-0.02481398,0.9946216,14.55386,1.18569,-41.06548
2.910378933,0.07809511,0.1460362,0.09617182,-0.000432471,-0.01900668,0.998064,15.3017,0.4328527,-41.06483
2.920458317,-0.04508211,0.1459654,-0.2701452,-0.000420072,-0.01946494,1.001954,15.3017,0.4328527,-41.06483
2.930537701,-0.168182,-0.1528888,-0.0259179,0.001003116,-0.01902959,0.9941698,15.3017,0.4328527,-41.06483
2.938097477,-0.106542,-0.2124564,0.09614637,-0.001412623,-0.02001089,0.9917325,15.3017,0.4328527,-41.06483
2.948176861,0.01667097,0.08642506,-0.02595674,0.003408626,-0.01952504,0.9917318,15.3017,0.4328527,-41.06483
2.958255768,0.01663068,0.08641032,-0.02598165,-0.000909762,-0.02093605,0.9980527,15.29922,0.8034935,-41.06334
2.968335152,0.07816869,0.02651507,0.03506135,-0.002865411,-0.01711546,0.9922379,15.29922,0.8034935,-41.06334
2.978414536,-0.04496994,-0.03317361,0.09606598,0.002452342,-0.01999302,0.9941628,15.29922,0.8034935,-41.06334
2.988493443,0.1397825,0.02652342,0.03495413,0.001985433,-0.02432465,0.9955968,15.29922,0.8034935,-41.06334
2.998572826,0.2629375,0.146026,-0.08714881,-0.00045231,-0.02001917,0.990272,15.29922,0.8034935,-41.06334
3.008651733,-0.1066495,0.02641929,-0.02618233,0.00242507,-0.01374774,0.9903079,15.66818,1.168356,-41.06004
3.018731117,0.1398168,0.145922,-0.02626445,0.00101381,-0.02046135,0.9965943,15.66818,1.168356,-41.06004
3.028810501,-0.04495815,0.02624031,0.1567996,0.003398551,-0.02051654,0.9873462,15.66818,1.168356,-41.06004
3.038889408,-0.1680388,0.145687,0.1567751,0.000513583,-0.02001545,0.9907579,15.66818,1.168356,-41.06004
3.048968792,0.07831113,-0.03364978,0.1566548,-0.000445025,-0.01903367,0.9936842,14.93389,0.4386945,-40.62901
3.059048176,-0.0448857,-0.03360753,-0.02638124,0.000517616,-0.01612744,0.9956477,14.93389,0.4386945,-40.62901
3.069127083,-0.04484867,0.1457198,-0.02648227,0.001961257,-0.02146713,0.9897747,14.93389,0.4386945,-40.62901
3.079206467,-0.04485038,0.02615091,0.09559086,0.001003116,-0.01902959,0.9941698,14.93389,0.4386945,-40.62901
3.089285851,0.01674551,-0.0336874,-0.08752193,-0.000436193,-0.02192418,0.9941533,14.93389,0.4386945,-40.62901
3.099364758,0.07832206,0.1456775,-0.02642081,0.001951031,-0.01857961,0.988819,15.29922,0.8034935,-41.06334
3.109444141,0.1398599,0.1456447,0.09565225,-0.002385024,-0.01857385,0.9902822,15.29922,0.8034935,-41.06334
3.119523048,-0.04491505,0.02609473,0.03457927,-0.001411694,-0.02146365,0.9907506,15.29922,0.8034935,-41.06334
3.129602432,0.1398567,0.1456166,0.09558451,-0.002385797,-0.01663585,0.9917538,15.29922,0.8034935,-41.06334
3.139681816,0.07816085,0.02610425,0.03449245,5.47E-05,-0.02093533,0.9980519,15.29922,0.8034935,-41.06334
3.149761677,-0.04501644,-0.03382782,0.03446828,0.002917235,-0.01760539,0.990284,15.29922,0.8034935,-41.06334
3.159840584,-0.04490186,-0.1532462,0.278543,-0.001396351,-0.02143066,0.9961035,15.29922,0.8034935,-41.06334
3.169919967,-0.0450002,-0.2726271,-0.02664773,0.000993508,-0.01856534,0.9912528,15.29922,0.8034935,-41.06334
3.179999351,-0.04492434,0.08598526,-0.02674844,0.002951948,-0.02237993,0.9980409,15.29922,0.8034935,-41.06334
3.190078258,0.01671032,-0.03360234,0.09534417,0.001004818,-0.02242035,0.9917161,15.29922,0.8034935,-41.06334
3.200157642,0.01668932,-0.3323061,-0.0267771,0.001003734,-0.02145285,0.9922086,14.93141,0.8093352,-40.62751
3.210237026,-0.04477453,-0.1530164,0.1563067,-0.003328754,-0.01901484,0.9970928,14.93141,0.8093352,-40.62751
3.220315933,0.01680195,-0.03351348,-0.08781599,0.001975984,-0.01901088,0.9970888,14.93141,0.8093352,-40.62751
3.230395317,0.01681951,-0.1531762,-0.0878782,-0.000931614,-0.01952828,0.9917351,14.93141,0.8093352,-40.62751
3.240474224,0.07849267,-0.03356048,-0.02687249,-0.004308284,-0.01807805,0.9927198,14.93141,0.8093352,-40.62751
3.248033523,-0.1678749,-0.09318422,0.2172134,0.000512654,-0.0185627,0.9917399,15.30533,0.4329166,-40.62719
3.258112907,-0.1062985,-0.03344934,-0.02704334,-0.001390615,-0.02093341,0.9985397,15.30533,0.4329166,-40.62719
3.268192291,-0.2293795,0.08607228,0.03402014,-0.002873936,-0.01761871,0.9888285,15.30533,0.4329166,-40.62719
3.278271198,0.07854843,-0.03338406,-0.1491878,0.001477151,-0.01856198,0.9917392,15.30533,0.4329166,-40.62719
3.288350582,0.1401441,-0.03337967,-0.02707556,-0.006712091,-0.02097335,0.9927041,15.30533,0.4329166,-40.62719
3.298429966,0.1401421,0.02631763,-0.02711821,0.000523502,-0.01950921,0.9946539,15.66207,1.538932,-41.49619
3.308508873,0.01694495,0.02639714,-0.08813282,-0.000916892,-0.02143629,0.9951299,15.66207,1.538932,-41.49619
3.318588257,0.01696235,0.02649538,0.2170679,-0.001392632,-0.02287741,0.9960947,15.66207,1.538932,-41.49619
3.328667164,0.1400975,-0.1526917,-0.08812231,0.003891963,-0.01612793,0.9951584,15.66207,1.538932,-41.49619
3.338746548,-0.1062174,0.02669138,0.03397072,0.003421024,-0.0199833,0.995622,15.66207,1.538932,-41.49619
3.348825931,0.1401517,-0.1526085,0.09488091,0.001508297,-0.02576877,0.9960749,15.30285,0.8035574,-40.6257
3.358905792,-0.04458502,-0.09283648,0.03382804,-0.005264105,-0.02145453,0.9927,15.30285,0.8035574,-40.6257
3.368984699,0.01689449,-0.1525816,0.03380472,0.002950086,-0.02383868,0.9960855,15.30285,0.8035574,-40.6257
3.379064083,-0.04460825,-0.09280968,0.03380058,-0.000440995,-0.01950993,0.9946546,15.30285,0.8035574,-40.6257
3.389143467,0.01692934,-0.1524986,-0.02729056,-0.001403787,-0.01853715,0.996121,15.30285,0.8035574,-40.6257
3.399222374,-0.1061517,0.0267904,0.09470691,-0.002392931,-0.02150036,0.9849116,15.29197,0.8033657,-41.93863
3.409301758,0.07846494,-0.3317008,-0.08840476,-0.00043108,-0.02336794,0.9946312,15.29197,0.8033657,-41.93863
3.419381142,0.0783664,0.02694822,0.1557477,0.00052288,-0.02145021,0.9926956,15.29197,0.8033657,-41.93863
3.429460049,-0.04475315,0.1465065,0.09458004,-0.001866357,-0.02237453,0.9995044,15.29197,0.8033657,-41.93863
3.439539432,-0.1063332,-0.2120412,-0.08858898,-0.000457268,-0.01809016,0.9902837,15.29197,0.8033657,-41.93863
3.449618816,0.07845774,-0.09246417,0.03352382,-0.000440689,-0.02290368,0.9917142,15.29674,1.174134,-41.06185
3.459697723,-0.04473928,-0.1521535,-0.02750947,-0.002360849,-0.02143138,0.9961042,15.29674,1.174134,-41.06185
3.469777107,0.01679844,0.02719133,0.03349709,0.002452649,-0.02338678,0.9912224,15.29674,1.174134,-41.06185
3.479856014,-0.1063405,-0.09235997,-0.02757452,0.000526292,-0.01950321,0.9956272,15.29674,1.174134,-41.06185
3.489935398,0.07854716,-0.09228151,0.09449996,-0.003333249,-0.01999434,0.9946539,15.29788,1.544838,-40.62272
3.500014782,0.01690895,0.08711948,0.03340926,-0.001897662,-0.02001725,0.9907598,15.29788,1.544838,-40.62272
3.510093689,0.07854328,-0.03243201,0.09439682,-0.002388742,-0.0171271,0.990291,15.29788,1.544838,-40.62272
3.520173073,0.1400615,-0.09221553,-0.02766574,0.00102109,-0.02384012,0.996087,15.29788,1.544838,-40.62272
3.530252457,0.01686448,0.146822,-0.02770769,0.00342939,-0.02432957,0.9946223,15.29788,1.544838,-40.62272
3.540331364,-0.04467694,0.1465813,-0.02786456,0.001472811,-0.01905623,0.9897897,14.9253,1.179912,-41.06366
3.550410747,-0.04471752,0.08689193,-0.02788703,3.97E-05,-0.01999782,0.993678,14.9253,1.179912,-41.06366
3.560490131,0.01689754,-0.1521952,-0.08901566,-0.000936878,-0.01420552,0.9946872,14.9253,1.179912,-41.06366
3.568049908,-0.1062168,-0.2118385,0.03305056,-0.000438051,-0.01901868,0.9961174,14.9253,1.179912,-41.06366
3.578128815,-0.2292593,0.2064279,-0.02803965,4.34E-05,-0.01708031,0.9975887,14.9253,1.179912,-41.06366
3.588208198,0.01709026,-0.211888,-0.02804276,0.001988067,-0.0248039,0.9960804,14.93504,0.8093991,-40.18987
3.598287582,0.01718481,-0.09238618,-0.1501624,0.002935519,-0.02144541,0.9931804,14.93504,0.8093991,-40.18987
3.608366489,0.01714391,-0.1520944,-0.08902094,0.001488773,-0.02144649,0.9931815,14.93504,0.8093991,-40.18987
3.618445873,0.017045,-0.09207907,-0.0890433,-0.001396351,-0.02143066,0.9961035,14.93504,0.8093991,-40.18987
3.628525257,0.01710095,0.1469395,-0.150076,0.001479475,-0.02001173,0.9912437,14.93504,0.8093991,-40.18987
3.638604164,0.07877375,0.206598,0.03308606,-0.000928979,-0.02000753,0.9922189,15.67066,0.7977152,-41.06153
3.648683548,0.01705789,0.02731608,0.09416985,0.001002499,-0.01660634,0.9961309,15.67066,0.7977152,-41.06153
3.658762932,0.2016745,-0.09231044,0.3381121,0.003401034,-0.01711678,0.9912598,15.67066,0.7977152,-41.06153
3.668841839,-0.04460167,-0.0325579,0.03288489,-0.00236689,-0.01853487,0.9966086,15.67066,0.7977152,-41.06153
3.678921223,0.1402084,0.08700015,0.03286274,0.003425822,-0.02676182,0.9912012,15.67066,0.7977152,-41.06153
3.68900013,0.1401483,0.2065018,-0.0282464,-0.00092061,-0.01998954,0.9951386,14.9253,1.179912,-41.06366
3.699079513,0.07849079,0.02722007,-0.15027,0.001988378,-0.0238334,0.9970595,14.9253,1.179912,-41.06366
3.709158897,-0.04462893,0.08704764,0.09394101,0.001012414,-0.02046436,0.9961075,14.9253,1.179912,-41.06366
3.719237804,-0.04465023,0.08695707,-0.02827433,0.001957854,-0.01468561,0.9946821,14.9253,1.179912,-41.06366
3.729317188,0.1400632,-0.2715347,0.09385855,0.001488466,-0.01805274,0.9961218,14.9253,1.179912,-41.06366
3.739396572,0.0168469,0.08696377,0.09375983,2.42E-05,-0.0161518,0.9917549,15.30285,0.8035574,-40.6257
3.749475479,-0.04477187,0.08694836,-0.02830198,0.002443506,-0.02146677,0.9897743,15.30285,0.8035574,-40.6257
3.759554863,-0.04473496,-0.09233335,0.03276308,0.001500394,-0.02433101,0.9946238,15.30285,0.8035574,-40.6257
3.769634247,-0.04471746,-0.3313079,-0.02826925,-0.00140193,-0.02144265,0.994157,15.30285,0.8035574,-40.6257
3.779713154,-0.1062782,-0.0323898,-0.0282529,0.001005595,-0.0199941,0.9941639,15.30285,0.8035574,-40.6257
3.789792538,-0.167897,0.2066664,0.03263962,-0.001872403,-0.02384228,0.9960892,15.30418,0.06221199,-41.06633
3.799871445,0.01695192,0.2064255,0.27664,-0.002842635,-0.02434024,0.9936538,15.30418,0.06221199,-41.06633
3.809950829,0.01689197,-0.09248582,-0.1507224,-0.003804032,-0.02336446,0.995607,15.30418,0.06221199,-41.06633
3.820030212,-0.04472682,-0.03282688,0.0934317,0.001492495,-0.01852899,0.9970921,15.30418,0.06221199,-41.06633
3.830109119,-0.1063069,0.2062299,-0.08987004,0.00293273,-0.02145141,0.9922071,15.30418,0.06221199,-41.06633
3.840188503,-0.1677903,0.08671641,-0.0288043,0.000502734,-0.01906894,0.9878439,14.92778,0.8092713,-41.06516
3.850268364,-0.1060786,0.2659301,-0.0287873,-0.000939672,-0.01857577,0.9897945,14.92778,0.8092713,-41.06516
3.860347748,-0.04444449,-0.09252372,-0.1508102,-0.001386435,-0.02528867,0.99608,14.92778,0.8092713,-41.06516
3.870426655,0.01711221,0.08682127,0.1543543,0.001477769,-0.02098523,0.989778,14.92778,0.8092713,-41.06516
3.880506039,0.07876563,-0.03276736,-0.02883223,0.001503495,-0.02335451,0.9965763,14.92778,0.8092713,-41.06516
3.888065338,0.07888484,0.02697516,-0.02888175,0.00198342,-0.02190439,0.9970713,15.30285,0.8035574,-40.6257
3.898144245,0.2020776,-0.03263903,-0.1509237,-0.002867117,-0.01808896,0.9907722,15.30285,0.8035574,-40.6257
3.908223629,0.01737919,0.08682528,0.0932498,0.002918318,-0.0185729,0.9897915,15.30285,0.8035574,-40.6257
3.918303013,0.0790323,0.2659826,0.1542772,0.002937688,-0.02338042,0.9921954,15.30285,0.8035574,-40.6257
3.92838192,-0.0442041,-0.2120448,0.09320726,0.002922192,-0.0195344,0.9902723,15.30285,0.8035574,-40.6257
3.938461304,0.1405862,0.0868174,0.03209899,0.004866372,-0.02434948,0.9912148,15.29674,1.174134,-41.06185
3.948540688,-0.2288858,0.02716556,-0.151049,-0.001883558,-0.01950201,0.9961156,15.29674,1.174134,-41.06185
3.958619595,0.07906076,-0.09229185,-0.1510318,-0.001408593,-0.02048715,0.992703,15.29674,1.174134,-41.06185
3.968698978,0.1406751,0.02726617,0.03207391,-0.001891309,-0.02194326,0.9912345,15.29674,1.174134,-41.06185
3.978778362,0.07907483,0.206517,-0.09008291,-0.001900296,-0.019538,0.990276,15.29674,1.174134,-41.06185
3.988857269,0.07903349,0.08689063,-0.09010395,0.000523191,-0.02047971,0.9936747,15.66932,1.53906,-40.62091
3.998936653,0.07901159,-0.03266059,0.03187658,0.001003738,-0.01708859,0.996128,15.66932,1.53906,-40.62091
4.00901556,0.01746947,0.08689754,0.03183653,-0.003808835,-0.0209502,0.9961082,15.66932,1.53906,-40.62091
4.019094944,0.01750554,0.02717057,0.03185406,0.002443195,-0.02243727,0.9887952,15.66932,1.53906,-40.62091
4.029174328,0.01759959,0.08686686,0.0317374,0.00149234,-0.01901424,0.9966027,15.66932,1.53906,-40.62091
4.039253235,-0.04392344,0.1465257,0.1536224,0.00245296,-0.02241627,0.9922016,15.29922,0.8034935,-41.06334
4.049332619,-0.1054272,-0.03271821,-0.0296591,0.003413428,-0.0219393,0.9912305,15.29922,0.8034935,-41.06334
4.059412003,0.1409022,0.2063759,-0.02962186,0.000997537,-0.01904159,0.9922233,15.29922,0.8034935,-41.06334
4.069491863,-0.04404822,0.08691861,0.2144951,0.001018301,-0.02384612,0.9951137,15.29922,0.8034935,-41.06334
4.07957077,0.01752732,0.02717282,0.09233911,0.002940788,-0.02240392,0.9941478,15.30895,0.4329805,-40.18955
4.089650154,0.1407198,0.0868879,-0.02981672,0.001012255,-0.02531387,0.9916985,15.30895,0.4329805,-40.18955
4.099729538,0.01757994,0.08689137,0.03121192,0.001945452,-0.01859161,0.9868726,15.30895,0.4329805,-40.18955
4.109808445,0.07909744,-0.152177,0.1533084,0.002456989,-0.02289253,0.993172,15.30895,0.4329805,-40.18955
4.119887829,0.01751654,-0.1522673,0.09220133,-0.002376814,-0.02340537,0.988793,15.30895,0.4329805,-40.18955
4.129966736,0.2023066,-0.09253327,0.03105601,0.001487844,-0.01999374,0.9941635,15.30533,0.4329166,-40.62719
4.140046119,-0.04404773,0.1465422,0.03099785,-0.000447352,-0.02194818,0.9902602,15.30533,0.4329166,-40.62719
4.150125503,-0.04401175,-0.212137,0.03099725,-0.003810074,-0.02046795,0.9961112,15.30533,0.4329166,-40.62719
4.16020441,0.2022985,-0.0329045,0.153094,0.001955216,-0.01857061,0.990279,15.30533,0.4329166,-40.62719
4.170283794,0.0175224,-0.03293823,0.03099601,0.000516839,-0.0185537,0.9931998,15.30533,0.4329166,-40.62719
4.180363178,0.1407536,-0.3914295,0.09202491,-0.003812246,-0.0228972,0.9931768,15.30285,0.8035574,-40.6257
4.190442085,0.07911456,-0.03266794,0.03110976,-0.000922005,-0.01999254,0.994652,15.30285,0.8035574,-40.6257
4.200521469,-0.04408331,0.08687145,-0.02988215,0.00244738,-0.02242827,0.9902551,15.30285,0.8035574,-40.6257
4.208080768,-0.0440998,-0.03269002,-0.09103687,0.001475446,-0.01953548,0.9902734,15.30285,0.8035574,-40.6257
4.218159675,-0.105584,0.02700642,0.03098318,3.37E-05,-0.02146557,0.9902628,15.30285,0.8035574,-40.6257
4.228239059,-0.04402783,-0.03273915,0.03088677,-0.00093208,-0.02098403,0.9902665,15.67314,0.4270744,-41.06302
4.238318443,0.1408589,-0.09250353,-0.03023906,0.00052846,-0.02143821,0.9946421,15.67314,0.4270744,-41.06302
4.24839735,-0.1671512,-0.1522491,0.03088593,0.004851654,-0.01807721,0.9917395,15.67314,0.4270744,-41.06302
4.258476734,0.01769678,-0.09245881,-0.03014405,-0.001411073,-0.01952264,0.9927088,15.67314,0.4270744,-41.06302
4.268556118,0.1407923,-0.1522045,0.03092333,4.20E-05,-0.01708331,0.997102,15.67314,0.4270744,-41.06302
4.278635025,0.07917263,-0.09233915,0.03086532,-0.000449672,-0.01613416,0.9946751,15.30285,0.8035574,-40.6257
4.288714886,0.2023264,-0.09233575,0.09181774,0.00391505,-0.02238221,0.9975535,15.30285,0.8035574,-40.6257
4.298794269,0.07912849,0.08693394,-0.2133493,0.000540392,-0.02335223,0.9970636,15.30285,0.8035574,-40.6257
4.308873653,0.1406847,-0.0326736,0.09179793,-0.001868218,-0.02383328,0.9975491,15.30285,0.8035574,-40.6257
4.31895256,-0.2288648,-0.2118614,-0.1522821,-0.002859059,-0.01904147,0.9927129,15.30285,0.8035574,-40.6257
4.329031944,0.07912052,0.2065177,-0.03022344,-0.00238115,-0.01953536,0.9907631,14.56245,0.4444723,-40.63082
4.339111328,0.1405994,0.08691003,-0.1523403,0.002940632,-0.02288917,0.9936582,14.56245,0.4444723,-40.63082
4.349190235,0.1404421,0.0270892,0.03074791,-0.000450756,-0.01516666,0.9951676,14.56245,0.4444723,-40.63082
4.359269619,0.01722524,0.02699887,0.03070929,0.001501789,-0.02432801,0.9951105,14.56245,0.4444723,-40.63082
4.369348526,0.01714558,-0.2719498,-0.0303013,0.002925449,-0.01807265,0.9927143,14.56245,0.4444723,-40.63082
4.37942791,0.07872165,-0.03281792,0.09173831,-0.003821078,-0.02000669,0.9927077,14.93141,0.8093352,-40.62751
4.389507294,-0.04443702,-0.03272039,0.03061275,-0.001420686,-0.02342265,0.9858724,14.93141,0.8093352,-40.62751
4.399586201,-0.1060755,0.1465307,0.09156547,0.004386451,-0.02143534,0.9946392,14.93141,0.8093352,-40.62751
4.409665584,-0.1061163,-0.09257498,-0.03058939,-0.002375726,-0.02000861,0.99222,14.93141,0.8093352,-40.62751
4.419744968,0.07871308,-0.2120134,0.03042103,0.001484588,-0.02145549,0.9917216,14.93141,0.8093352,-40.62751
4.429823875,-0.04452292,-0.03266841,0.2135097,0.00100265,-0.02048535,0.9927011,15.66818,1.168356,-41.06004
4.439903259,0.01707255,0.02712179,-0.03066568,0.003429083,-0.02093581,0.9975626,15.66818,1.168356,-41.06004
4.449982643,0.01703178,-0.09231679,-0.09158,0.001508608,-0.02479826,0.997054,15.66818,1.168356,-41.06004
4.46006155,0.2633427,0.02718492,0.1524997,0.003413428,-0.0219393,0.9912305,15.66818,1.168356,-41.06004
4.470140934,0.0170277,0.1467054,0.09139368,-0.004791772,-0.01759616,0.9927231,15.66818,1.168356,-41.06004
4.480219841,0.07860392,-0.1519996,0.09141307,0.002477291,-0.02478855,0.9985133,15.6718,1.16842,-40.6224
4.490299225,0.07852452,0.02736377,0.03030706,-0.002369218,-0.02144937,0.9931844,15.6718,1.16842,-40.6224
4.500378609,0.07850325,-0.09211271,0.09127934,-0.003800932,-0.02238796,0.9975594,15.6718,1.16842,-40.6224
4.510457516,-0.1063108,-0.0322666,-0.0919622,0.000999554,-0.01709759,0.9946681,15.6718,1.16842,-40.6224
4.520536899,-0.1062352,0.02742928,0.09112684,3.49E-05,-0.02194782,0.9902599,15.6718,1.16842,-40.6224
4.528096676,-0.04455689,0.1469581,0.03008815,0.000525208,-0.01853571,0.9961196,14.92663,0.4385667,-41.50429
4.53817606,0.01692262,0.08728707,0.03010785,4.28E-05,-0.01902132,0.9956304,14.92663,0.4385667,-41.50429
4.548255443,0.0169207,0.3261366,-0.03095948,0.001006835,-0.02047635,0.994161,14.92663,0.4385667,-41.50429
4.55833435,-0.04469813,-0.09217951,-0.1529605,0.000525359,-0.02241471,0.9926898,14.92663,0.4385667,-41.50429
4.568413734,-0.1063556,0.08705245,0.09117718,0.001955838,-0.01662961,0.9922372,14.92663,0.4385667,-41.50429
4.578492641,0.01685713,0.0272502,-0.03091969,-0.00045076,-0.01953092,0.9912481,15.29674,1.174134,-41.06185
4.588572025,-0.2294577,0.08696517,0.03022531,-0.001867907,-0.02286278,0.9985284,15.29674,1.174134,-41.06185
4.598651409,0.1400872,-0.152047,0.03005319,-0.003795978,-0.02868123,0.9936282,15.29674,1.174134,-41.06185
4.608730316,-0.106189,0.08702812,0.03001545,0.003404441,-0.01953404,0.990272,15.29674,1.174134,-41.06185
4.6188097,-0.044458,0.08714398,0.02997776,-0.001409833,-0.02000489,0.9927059,15.29674,1.174134,-41.06185
4.628889084,-0.04432478,-0.03235126,0.09093131,-0.000433097,-0.02531195,0.9921863,15.67791,0.797843,-40.18625
4.638967991,-0.1058667,0.027326,0.02988343,-0.00139604,-0.02046015,0.9970826,15.67791,0.797843,-40.18625
4.649047375,0.01732609,0.02729169,0.02980756,0.00051281,-0.01807745,0.9922295,15.67791,0.797843,-40.18625
4.659126758,0.1405188,-0.271526,-0.03122108,0.001965131,-0.02242863,0.9902555,15.67791,0.797843,-40.18625
4.669205666,0.01737923,0.1466653,0.2738507,-0.000443168,-0.02193918,0.9917201,14.92778,0.8092713,-41.06516
4.679285049,0.079013,0.08673184,-0.0924212,0.001958934,-0.02001737,0.9902701,14.92778,0.8092713,-41.06516
4.689363956,0.01737423,0.08664165,-0.03135227,-0.000903409,-0.02286206,0.9985276,14.92778,0.8092713,-41.06516
4.69944334,0.07894999,-0.03285298,-0.03123622,3.44E-05,-0.01903931,0.9927106,14.92778,0.8092713,-41.06516
4.709522724,0.0171759,0.1464921,0.1519107,-0.002367046,-0.01902012,0.9961188,14.92778,0.8092713,-41.06516
4.719601631,-0.04442389,-0.09251974,-0.09228314,0.000996453,-0.01807409,0.9927158,15.30533,0.4329166,-40.62719
4.729681015,-0.1059657,0.02698224,0.02977679,0.001017061,-0.02336386,0.9951167,15.30533,0.4329166,-40.62719
4.739760399,-0.04433172,0.02691083,0.02972023,0.002466909,-0.02238628,0.9970679,15.30533,0.4329166,-40.62719
4.749839306,0.07889979,-0.03287213,-0.09231862,1.85E-05,-0.01664905,0.9893188,15.30533,0.4329166,-40.62719
4.75991869,-0.105876,0.0268996,-0.03124979,-0.00383301,-0.01809268,0.9902863,15.30533,0.4329166,-40.62719
4.769998074,0.01735547,0.08667131,-0.03130638,-0.001399607,-0.02289241,0.9936615,14.92282,1.550552,-41.06217
4.780076981,0.07891193,0.1463679,-0.03132457,0.001483504,-0.02048799,0.9922141,14.92282,1.550552,-41.06217
4.790156364,0.2020853,0.086585,0.09071629,0.001482886,-0.01806473,0.9941753,14.92282,1.550552,-41.06217
4.800236225,0.01725148,-0.03298459,-0.03139918,-0.000924018,-0.01757228,0.9961265,14.92282,1.550552,-41.06217
4.810315132,0.2020225,0.2058847,0.2127391,3.20E-05,-0.02243907,0.988797,14.92282,1.550552,-41.06217
4.820394516,0.0172468,0.02645361,0.1515958,-0.001420833,-0.01517938,0.9932218,15.30285,0.8035574,-40.6257
4.8304739,0.07878403,0.02645796,0.02944216,-0.001412468,-0.01952564,0.9922221,15.30285,0.8035574,-40.6257
4.840552807,0.01714551,0.2056348,-0.03158596,0.001484592,-0.01709123,0.9956411,15.30285,0.8035574,-40.6257
4.848112106,0.01711001,0.1457669,-0.03147951,-0.000924333,-0.02290704,0.9912279,15.30285,0.8035574,-40.6257
4.85819149,-0.04447037,0.1456964,-0.03151663,-0.000434798,-0.02192119,0.9946399,15.30285,0.8035574,-40.6257
4.868270874,-0.04437584,0.02620271,0.09050531,0.003873056,-0.01422891,0.9903038,15.29922,0.8034935,-41.06334
4.878349781,0.01716143,-0.1531153,-0.09263942,-0.003349673,-0.01469557,0.9937127,15.29922,0.8034935,-41.06334
4.888429165,-0.1675949,0.08599872,0.02940178,0.001948397,-0.01810036,0.9883354,15.29922,0.8034935,-41.06334
4.898508072,0.01721503,0.08590949,-0.09273252,0.001005591,-0.02435836,0.9902445,15.29922,0.8034935,-41.06334
4.908587456,0.07879098,0.02624006,0.02936631,0.002453271,-0.02144577,0.9931808,15.29922,0.8034935,-41.06334
4.91866684,0.01722979,-0.03341072,0.02932941,-0.002843875,-0.02385799,0.9936568,15.3017,0.4328527,-41.06483
4.928745747,0.07870907,-0.03334998,0.09028374,0.001474362,-0.01856798,0.990766,15.3017,0.4328527,-41.06483
4.93882513,0.07864888,0.0264036,-0.2149964,-0.002404086,-0.01716009,0.984938,15.3017,0.4328527,-41.06483
4.948904514,0.01708786,0.02635165,-0.03192534,0.000989012,-0.01954484,0.9888139,15.3017,0.4328527,-41.06483
4.958983421,0.1401649,-0.03344941,-0.03198109,-0.001885574,-0.02144601,0.9936706,15.3017,0.4328527,-41.06483
4.969062805,-0.04466854,-0.09330671,-0.09302795,-0.001883406,-0.02338102,0.9926858,15.30399,1.174262,-40.18657
4.979142189,-0.04463177,0.08607683,0.2120256,4.30E-05,-0.01853607,0.9961199,15.30399,1.174262,-40.18657
4.989221096,-0.1677129,-0.03345459,0.08991113,-0.002365496,-0.01853187,0.997095,15.30399,1.174262,-40.18657
4.99930048,0.1401763,-0.1530048,-0.03226084,-0.003325808,-0.01852359,0.9985558,15.30399,1.174262,-40.18657
5.009379387,-0.04450247,-0.03338928,0.02873252,-0.001893633,-0.02049351,0.99173,15.30399,1.174262,-40.18657
5.019458771,-0.1062376,0.08622609,-0.03225642,-0.00188449,-0.02241351,0.9931782,15.29559,0.8034296,-41.50098
5.029538631,-0.1062008,0.3252271,-0.03223509,-0.002372163,-0.02194062,0.9917216,15.29559,0.8034296,-41.50098
5.039618015,-0.1677424,-0.09318171,0.08986442,0.003399328,-0.01809029,0.9897941,15.29559,0.8034296,-41.50098
5.049696922,0.1401855,-0.1529827,-0.09331781,0.000524275,-0.02144721,0.9931822,15.29559,0.8034296,-41.50098
5.059776306,-0.1061875,0.2055919,-0.09327723,0.002437002,-0.01566175,0.9927293,15.29559,0.8034296,-41.50098
5.06985569,0.01698634,-0.03345662,0.1509004,-0.000915959,-0.01852479,0.9980673,15.30037,1.174198,-40.62421
5.079934597,0.01696503,0.08595242,-0.03222431,-0.000914724,-0.0233713,0.9941449,15.30037,1.174198,-40.62421
5.090013981,0.1400422,-0.153171,0.02873069,-0.00043929,-0.01853643,0.9961203,15.30037,1.174198,-40.62421
5.100093365,-0.04479107,-0.1531851,0.2117448,-0.001879999,-0.02579828,0.9916978,15.30037,1.174198,-40.62421
5.110172272,0.078383,-0.03368192,0.02862034,4.68E-05,-0.01949757,0.9966009,15.30037,1.174198,-40.62421
5.120251655,-0.1064115,0.1454578,0.08959474,-0.00188728,-0.02241951,0.992205,15.66951,0.4270105,-41.50066
5.130330562,0.01691732,0.0857136,0.02847185,0.001499155,-0.02384876,0.9946268,15.66951,0.4270105,-41.50066
5.140409946,-0.1062024,0.2050856,0.08942726,-0.003341312,-0.02340609,0.9887937,15.66951,0.4270105,-41.50066
5.15048933,0.01689409,-0.2131724,0.08939162,-0.001410917,-0.01903739,0.9931984,15.66951,0.4270105,-41.50066
5.15804863,-0.04470007,0.1454298,-0.03267495,-0.001409056,-0.01757864,0.9951537,15.66951,0.4270105,-41.50066
5.168127537,0.01685695,-0.1534613,-0.1548463,-0.002374331,-0.02000561,0.9927067,15.29922,0.8034935,-41.06334
5.17820692,-0.2910168,-0.09361318,0.02832174,0.001499621,-0.022393,0.9960954,15.29922,0.8034935,-41.06334
5.188286304,-0.04455097,0.02596526,-0.09377289,-0.002865105,-0.02050922,0.9892976,15.29922,0.8034935,-41.06334
5.198365211,0.01700587,0.08579443,-0.1547996,0.000528926,-0.01998246,0.9961108,15.29922,0.8034935,-41.06334
5.208444595,-0.0445164,-0.1532913,-0.03277617,0.003405681,-0.02001629,0.9902691,15.67066,0.7977152,-41.06153
5.218523502,-0.167617,0.02596116,0.08932403,-0.001410144,-0.0209754,0.9917267,15.67066,0.7977152,-41.06153
5.228602886,-0.04448203,0.02605989,0.211405,-0.001424711,-0.01858213,0.9888216,15.67066,0.7977152,-41.06153
5.23868227,0.01709407,-0.09337743,-0.03276769,-0.003342703,-0.01904483,0.9922265,15.67066,0.7977152,-41.06153
5.248761177,-0.04450564,-0.09329765,0.08925581,-0.00284124,-0.02433724,0.9941405,15.67066,0.7977152,-41.06153
5.258841038,-0.04439174,0.2054529,-0.1548402,0.000540854,-0.02626073,0.9946129,15.30399,1.174262,-40.18657
5.268920421,0.140302,-0.09330718,-0.03274001,0.001002495,-0.0209706,0.9922115,15.30399,1.174262,-40.18657
5.278999805,0.07870232,-0.2128385,-0.09382425,4.57E-05,-0.02289433,0.9931738,15.30399,1.174262,-40.18657
5.289078712,-0.1059959,0.02625674,0.08924799,0.000529388,-0.02289097,0.99366,15.30399,1.174262,-40.18657
5.299158096,-0.1059594,0.08606675,0.2111757,-0.001394182,-0.02336566,0.9951185,15.30399,1.174262,-40.18657
5.30923748,-0.04422874,0.02628451,0.02803279,0.004858162,-0.01951797,0.992704,14.93141,0.8093352,-40.62751
5.319316387,0.01730832,-0.0931906,0.08908458,-0.00191269,-0.01471548,0.9903053,14.93141,0.8093352,-40.62751
5.329395771,-0.2291424,0.08609893,-0.03295217,-0.00044084,-0.01902468,0.9951441,14.93141,0.8093352,-40.62751
5.339475155,-0.0443713,0.02635419,0.1502161,0.002922041,-0.01565539,0.9937021,14.93141,0.8093352,-40.62751
5.349554062,-0.04443159,-0.09312101,0.1502191,-0.001414022,-0.02437815,0.9873265,14.93141,0.8093352,-40.62751
5.359633446,0.07864535,0.02636295,0.02810553,0.003412037,-0.01757804,0.9946634,15.67791,0.797843,-40.18625
5.369712353,0.01706502,-0.152899,-0.03299763,-0.000941844,-0.02100503,0.9868601,15.67791,0.797843,-40.18625
5.379791736,-0.04451531,0.02637175,0.02809251,0.00051312,-0.01710694,0.9932086,15.67791,0.797843,-40.18625
5.38987112,0.1401786,0.02631986,0.02807638,-0.000915035,-0.0243418,0.9931658,15.67791,0.797843,-40.18625
5.399950027,0.01700076,0.1458414,0.1501768,0.000534191,-0.02530522,0.9931588,15.67791,0.797843,-40.18625
5.410029411,-0.1062158,-0.09324463,0.08909285,0.001969938,-0.02047863,0.9936736,15.29922,0.8034935,-41.06334
5.420108795,0.2016928,-0.03347215,0.1500871,-0.003824955,-0.02340945,0.9883075,15.29922,0.8034935,-41.06334
5.430187702,-0.106239,0.02624403,0.2110432,0.002450792,-0.02048127,0.9931867,15.29922,0.8034935,-41.06334
5.440267086,0.01689624,-0.3323028,0.08891071,-0.000460831,-0.01615816,0.9907821,15.29922,0.8034935,-41.06334
5.45034647,0.01691367,0.08607735,-0.09434699,0.001969472,-0.02193438,0.992205,15.29922,0.8034935,-41.06334
5.460425377,-0.04474384,0.02631388,0.08866836,-0.000934399,-0.01517002,0.9946813,15.30285,0.8035574,-40.6257
5.467984676,-0.1062993,0.2056117,-0.03347421,-0.001400384,-0.02531866,0.9912137,15.30285,0.8035574,-40.6257
5.47806406,0.07847228,0.0263311,-0.0334705,-0.002377281,-0.02486113,0.9873243,15.30285,0.8035574,-40.6257
5.488143921,-0.04486013,0.08621609,0.02767772,0.000544732,-0.02285798,0.9990131,15.30285,0.8035574,-40.6257
5.498222828,-0.1679603,-0.2723873,0.08871079,0.000525052,-0.01902096,0.9956301,15.30285,0.8035574,-40.6257
5.508302212,0.01683075,0.02651311,0.02760819,-0.001888053,-0.02048151,0.9936765,15.30533,0.4329166,-40.62719
5.518381595,0.1399467,0.02657363,0.02759267,3.40E-05,-0.02049506,0.9912419,15.30533,0.4329166,-40.62719
5.528460503,-0.1680622,0.02659655,-0.03341401,0.001012259,-0.02094961,0.995618,15.30533,0.4329166,-40.62719
5.538539886,0.01669018,-0.03316728,0.08868697,-0.004793327,-0.02244866,0.9878275,15.30533,0.4329166,-40.62719
5.54861927,0.07836351,0.1460656,-0.03346429,-0.001412934,-0.0209814,0.9907535,15.30533,0.4329166,-40.62719
5.558698177,0.01660948,-0.09302071,0.08856012,0.003412815,-0.01515179,0.9971111,14.55997,0.8151131,-40.62933
5.568777561,-0.1065098,-0.03321099,0.1495359,-0.001893633,-0.02049351,0.99173,14.55997,0.8151131,-40.62933
5.578856468,0.1398208,-0.2125294,-0.03366381,-0.003833321,-0.01906318,0.989307,14.55997,0.8151131,-40.62933
5.588935852,-0.1065131,0.1461388,0.08830331,-0.005269218,-0.02001077,0.9922222,14.55997,0.8151131,-40.62933
5.599015236,0.01662248,0.08631866,-0.03396247,0.002936448,-0.02289817,0.9921983,14.55997,0.8151131,-40.62933
5.609094143,0.1397581,0.0264798,0.08804337,-0.000437588,-0.02192719,0.9936666,14.92893,1.179976,-40.62602
5.619173527,0.01660009,0.02650284,0.1491539,0.003406306,-0.01371103,0.9961466,14.92893,1.179976,-40.62602
5.629252911,0.01671461,0.02652587,0.210092,0.002459006,-0.02094853,0.9956169,14.92893,1.179976,-40.62602
5.639331818,-0.1679831,-0.2125605,0.08796072,0.002419175,-0.0190945,0.9834628,14.92893,1.179976,-40.62602
5.649411201,0.01673052,0.1459765,-0.03415127,0.004852742,-0.01468045,0.9951664,14.92893,1.179976,-40.62602
5.659490585,-0.2295455,0.02646359,0.1489035,0.001011175,-0.0199821,0.9961104,15.29674,1.174134,-41.06185
5.669569492,-0.1678723,-0.1526858,0.02671492,-0.000945714,-0.01567926,0.9902987,15.29674,1.174134,-41.06185
5.679648876,-0.04469834,0.02654709,0.02668139,-0.000930685,-0.02098103,0.9907532,15.29674,1.174134,-41.06185
5.689727783,-0.04470021,0.08635675,0.1487836,0.000532644,-0.02142922,0.996102,15.29674,1.174134,-41.06185
5.699807167,0.01687616,0.02657418,0.08773972,0.002454665,-0.02144277,0.9936674,15.30533,0.4329166,-40.62719
5.709886551,-0.0447426,0.02637191,-0.03433368,-0.00333635,-0.02097084,0.9927015,15.30533,0.4329166,-40.62719
5.719965458,-0.1677075,-0.09330972,0.02671979,-0.004315103,-0.01760779,0.9907762,15.30533,0.4329166,-40.62719
5.730044842,0.01704452,0.1456729,0.0879074,-0.003349677,-0.01905983,0.9897934,15.30533,0.4329166,-40.62719
5.740124226,0.07865939,-0.1533686,-0.09527239,0.00339003,-0.01665553,0.9878563,15.30533,0.4329166,-40.62719
5.750203133,0.07873464,-0.09372701,-0.03425739,-0.002357908,-0.02530439,0.9936476,15.30151,1.544902,-40.18508
5.760282516,-0.04448207,-0.2131827,0.08782551,0.00149652,-0.0233695,0.994143,15.30151,1.544902,-40.18508
5.7703619,0.07865293,0.08568084,-0.03428633,0.000501802,-0.02198045,0.9849065,15.30151,1.544902,-40.18508
5.780440807,-0.04452498,-0.0338313,0.08775826,0.000518229,-0.02291496,0.989767,15.30151,1.544902,-40.18508
5.790520191,0.01708985,0.02612928,0.02658015,-0.001899523,-0.021476,0.9888043,15.30151,1.544902,-40.18508
5.798079967,-0.1675643,-0.2128921,0.08756544,0.002442733,-0.01952876,0.9912459,15.67791,0.797843,-40.18625
5.808159351,-0.04427466,-0.03363983,-0.2176346,-0.002365655,-0.02338138,0.9926862,15.67791,0.797843,-40.18625
5.818238258,0.01730116,0.3248975,0.1485667,0.000995365,-0.02147085,0.9892887,15.67791,0.797843,-40.18625
5.828317642,0.01737613,0.2052538,0.08752306,-0.00044363,-0.01903067,0.9941708,15.67791,0.797843,-40.18625
5.838397026,-0.1057442,0.1454344,-0.1566474,-0.000922471,-0.02144829,0.9931834,15.67791,0.797843,-40.18625
5.848475933,0.1405662,0.08561514,-0.09553616,0.002433129,-0.01470025,0.9922485,15.30285,0.8035574,-40.6257
5.858555317,-0.04422903,0.02581471,0.1486252,-0.001411073,-0.01952264,0.9927088,15.30285,0.8035574,-40.6257
5.868634701,-0.1674267,0.08568159,0.0265137,0.000490029,-0.01521693,0.9868941,15.30285,0.8035574,-40.6257
5.878713608,0.01730558,0.0856678,0.08745241,0.000495142,-0.01666068,0.9873719,15.30285,0.8035574,-40.6257
5.888792992,0.2019605,0.02594237,-0.0346973,-0.001401157,-0.02338066,0.9926854,15.30285,0.8035574,-40.6257
5.898871899,0.07884046,0.02590977,0.0872328,-0.003327981,-0.02095284,0.9956213,14.93255,1.180039,-40.18838
5.908951282,0.07887679,-0.09362114,0.02620872,0.001969009,-0.01902588,0.9946557,14.93255,1.180039,-40.18838
5.919030666,-0.04432074,0.0857065,0.02623327,-0.00139883,-0.02046615,0.9961093,14.93255,1.180039,-40.18838
5.929109573,0.01727451,-0.09361118,0.02614282,0.002959228,-0.02575869,0.9975337,14.93255,1.180039,-40.18838
5.939188957,0.1404866,-0.03376317,0.2091602,0.001003428,-0.01805909,0.9951489,14.93255,1.180039,-40.18838
5.949268341,-0.1057707,0.08568382,0.08685762,-0.004770702,-0.02579444,0.9926733,15.30037,1.174198,-40.62421
5.959347248,0.07896154,-0.1532329,0.08682518,0.003403046,-0.01953704,0.9897853,15.30037,1.174198,-40.62421
5.969426632,0.01741947,0.0859188,0.02580163,-0.002380684,-0.01807961,0.9922317,15.30037,1.174198,-40.62421
5.979506016,0.0789565,0.1456539,0.2088578,0.002928856,-0.02048991,0.9917263,15.30037,1.174198,-40.62421
5.989584923,0.07891536,-0.09343201,0.08665141,0.004371573,-0.02001257,0.990755,15.30037,1.174198,-40.62421
5.999664307,-0.2289976,0.08574526,0.02555138,-0.004305965,-0.02389206,0.988305,15.30037,1.174198,-40.62421
6.009743214,-0.1056695,0.08582519,-0.09653976,0.000523347,-0.01999446,0.9941643,15.30037,1.174198,-40.62421
6.019822598,-0.2903876,-0.03374345,-0.03550399,0.001974429,-0.02386339,0.9921932,15.30037,1.174198,-40.62421
6.029902458,-0.1670984,0.1454714,0.08656129,0.001965291,-0.01757912,0.9946645,15.30037,1.174198,-40.62421
6.039981842,0.07907633,-0.09367053,0.1475204,-0.002828997,-0.02528076,0.9975411,15.30037,1.174198,-40.62421
6.050060749,-0.04408278,0.08558208,0.02537192,-0.001425328,-0.01615888,0.9907828,15.29922,0.8034935,-41.06334
6.060140133,-0.0439307,0.1453551,0.1473032,-0.00141727,-0.01711138,0.9927235,15.29922,0.8034935,-41.06334
6.070219517,0.07926165,0.0259181,0.02519336,-0.002385491,-0.02002961,0.9888135,15.29922,0.8034935,-41.06334
6.080298424,0.01775789,-0.09351901,0.1472016,-0.00478697,-0.02001041,0.9922218,15.29922,0.8034935,-41.06334
6.090377808,-0.1054402,0.1454451,-0.1580733,0.001000172,-0.01952085,0.992707,15.29922,0.8034935,-41.06334
6.100457191,-0.04392293,0.08568215,-0.1579898,-0.000446727,-0.01564292,0.9961379,15.67429,0.7977791,-40.62389
6.108016014,-0.1671154,-0.03393449,-0.1579751,-0.001896116,-0.02389326,0.9878165,15.67429,0.7977791,-40.62389
6.118095398,-0.04390372,0.2049547,-0.03590935,-0.004780773,-0.02242167,0.9922072,15.67429,0.7977791,-40.62389
6.128174782,-0.1054848,0.2049037,0.02508862,0.002459623,-0.02337178,0.9936556,15.67429,0.7977791,-40.62389
6.138253689,0.01763011,0.02549257,0.02503795,-0.00285379,-0.01999998,0.9936802,15.67429,0.7977791,-40.62389
6.148333072,0.01766598,-0.1537495,-0.03596552,-0.003826657,-0.02001869,0.9907612,15.30037,1.174198,-40.62421
6.158412456,-0.1670716,-0.1536503,0.08606198,0.001484588,-0.02145549,0.9917216,15.30037,1.174198,-40.62421
6.168491363,-0.3516158,-0.03401515,0.02502022,0.0005297,-0.02192047,0.9946392,15.30037,1.174198,-40.62421
6.178570747,-0.1669036,-0.03400994,-0.09701273,-0.004312624,-0.0185723,0.9907704,15.30037,1.174198,-40.62421
6.188650131,0.0795417,-0.03394847,-0.03595721,0.001972572,-0.02095788,0.9941573,15.30037,1.174198,-40.62421
6.198729038,0.01797958,0.08555505,-0.03610371,-0.001889603,-0.02096976,0.9927004,14.9253,1.179912,-41.06366
6.208808422,0.0180537,0.08554139,0.2689167,-0.000933475,-0.02098703,0.9897798,14.9253,1.179912,-41.06366
6.218887329,0.0180117,0.145352,0.08568204,-0.000947575,-0.01713802,0.9883434,14.9253,1.179912,-41.06366
6.228966713,0.2028012,0.08562665,0.2077676,-0.000444403,-0.01709267,0.9956425,14.9253,1.179912,-41.06366
6.239046097,0.1412002,0.2648042,-0.03645807,-0.000440218,-0.01708367,0.9971024,14.9253,1.179912,-41.06366
6.249125004,-0.04347976,0.08537415,0.02459808,0.001967148,-0.02048463,0.9927004,15.29311,1.17407,-41.49949
6.259204387,-0.04348319,0.08528566,-0.09747266,0.003407076,-0.02001329,0.9907557,15.29311,1.17407,-41.49949
6.269284248,0.07974724,0.2047332,-0.09742688,-0.001414018,-0.02001389,0.9912459,15.29311,1.17407,-41.49949
6.279363632,0.07964709,0.08522158,0.02467785,0.000530321,-0.01997946,0.9965976,15.29311,1.17407,-41.49949
6.289442539,0.01794948,0.02551546,-0.0363635,-0.000921228,-0.01756628,0.9970998,15.30037,1.174198,-40.62421
6.299521923,0.01798497,-0.1536891,-0.03637533,0.002454665,-0.02144277,0.9936674,15.30037,1.174198,-40.62421
6.309601307,0.01796239,0.02565764,-0.03638716,-0.00237139,-0.02387862,0.9902501,15.30037,1.174198,-40.62421
6.319680214,0.01793985,0.145105,-0.0974668,3.82E-05,-0.02048607,0.9927019,15.30037,1.174198,-40.62421
6.329759598,0.01793666,0.08537999,0.2688327,2.61E-05,-0.01905731,0.9897908,15.30037,1.174198,-40.62421
6.339838981,-0.0435481,0.1450782,-0.2195494,0.001030389,-0.02527488,0.9980248,15.67429,0.7977791,-40.62389
6.349917888,0.01806551,0.1449898,-0.09738711,-0.003817204,-0.0209682,0.9931885,15.67429,0.7977791,-40.62389
6.359997272,0.01800415,0.08518985,-0.03648448,-0.000929286,-0.01661378,0.9951591,15.67429,0.7977791,-40.62389
6.370076179,0.07959845,0.1447945,0.0245525,0.000503667,-0.01615744,0.9907814,15.67429,0.7977791,-40.62389
6.380155563,0.07949848,-0.154002,0.02450247,-0.000921698,-0.0233863,0.9917117,15.67429,0.7977791,-40.62389
6.390234947,-0.04366116,0.08511315,0.02443336,-0.000928979,-0.02000753,0.9922189,15.30285,0.8035574,-40.6257
6.400313854,-0.04364499,-0.03449214,0.02442183,0.002950242,-0.02335343,0.9965752,15.30285,0.8035574,-40.6257
6.410393238,-0.1668821,0.2045291,-0.03663837,0.000990874,-0.01808609,0.9907693,15.30285,0.8035574,-40.6257
6.420472622,0.01798495,0.02521233,0.1463812,0.000992424,-0.01759784,0.9917454,15.30285,0.8035574,-40.6257
6.428031444,-0.166728,-0.09434734,-0.1587509,-0.002371853,-0.02097012,0.9927008,15.30285,0.8035574,-40.6257
6.438110828,0.01802274,0.2044232,0.08539402,0.001480563,-0.01661498,0.9946707,15.30895,0.4329805,-40.18955
6.448190212,0.01800011,-0.03466136,0.02431473,-0.006713326,-0.01612684,0.9966265,15.30895,0.4329805,-40.18955
6.458269119,-0.2282968,0.08488053,0.08531367,3.30E-05,-0.01904231,0.992224,15.30895,0.4329805,-40.18955
6.468348503,0.07968777,-0.03470568,0.08530234,0.000993819,-0.01759484,0.992232,15.30895,0.4329805,-40.18955
6.478427887,-0.04345277,0.0250308,0.1462055,-0.001883558,-0.01950201,0.9961156,15.30895,0.4329805,-40.18955
6.488506794,0.2027987,0.0249618,0.08514571,3.26E-05,-0.0161338,0.9946747,15.67429,0.7977791,-40.62389
6.498586178,0.1411011,0.08467962,0.0851921,0.00101412,-0.01949085,0.9975733,15.67429,0.7977791,-40.62389
6.508666038,-0.0436561,0.02484281,-0.03687809,0.0019594,-0.01856162,0.9917388,15.67429,0.7977791,-40.62389
6.518745422,-0.2283747,-0.09464926,-0.03694679,0.001950102,-0.01712686,0.989801,15.67429,0.7977791,-40.62389
6.528824329,-0.1666256,0.08466088,0.02410996,0.004385834,-0.01901208,0.9966005,15.67429,0.7977791,-40.62389
6.538903713,0.07966454,0.08461085,0.02407968,3.46E-05,-0.01855406,0.9932002,16.04572,0.7920012,-40.62208
6.548983097,-0.04349531,0.2041343,-0.03694174,-0.001889914,-0.02194026,0.9917212,16.04572,0.7920012,-40.62208
6.559062004,0.07963845,0.02485552,-0.03687617,0.001976295,-0.01804038,0.998068,16.04572,0.7920012,-40.62208
6.569141388,-0.04346339,-0.1544796,-0.03684903,-0.004787739,-0.01370815,0.9976128,16.04572,0.7920012,-40.62208
6.579220295,-0.1666426,0.02481189,-0.1588617,3.34E-05,-0.01807181,0.9932031,16.04572,0.7920012,-40.62208
6.589299679,-0.1049904,0.1442416,-0.1588539,-0.002857509,-0.01855322,0.9936889,14.55272,0.8149853,-41.50461
6.599379063,0.07979882,0.02474966,-0.0367295,4.53E-05,-0.01998582,0.9956246,14.55272,0.8149853,-41.50461
6.60945797,-0.04336123,-0.09464845,0.024327,-0.0019113,-0.01907674,0.9868726,14.55272,0.8149853,-41.50461
6.619537353,-0.04344217,-0.1544101,-0.03680971,0.001488618,-0.02193175,0.992692,14.55272,0.8149853,-41.50461
6.629616737,-0.04342626,-0.09472971,0.02417021,-0.000444558,-0.01757792,0.995153,14.55272,0.8149853,-41.50461
6.639695644,-0.04344909,-0.1545851,0.02410153,-0.003342547,-0.01855958,0.9927161,14.92778,0.8092713,-41.06516
6.649775028,0.2028217,-0.1545973,0.02412874,-0.00480107,-0.0161614,0.9907854,14.92778,0.8092713,-41.06516
6.659854412,-0.04349457,0.08444349,0.02407927,-0.001895956,-0.01904375,0.9922255,14.92778,0.8092713,-41.06516
6.669933319,-0.04343995,-0.0949852,-0.03701884,0.001485672,-0.02242299,0.9912291,14.92778,0.8092713,-41.06516
6.680012703,0.01821219,0.2037674,0.02403801,3.49E-05,-0.01758356,0.9941792,14.92778,0.8092713,-41.06516
6.69009161,-0.1049478,0.08418202,0.02395031,0.003900172,-0.02095944,0.9936692,15.29674,1.174134,-41.06185
6.700170994,-0.1047773,-0.1548642,-0.03705179,-0.004787903,-0.02292192,0.9892844,15.29674,1.174134,-41.06185
6.710250378,0.01841409,0.1440012,0.02389009,-0.001894872,-0.02001125,0.991733,15.29674,1.174134,-41.06185
6.720329285,0.01833293,-0.03520203,0.02380257,0.001004512,-0.0190266,0.9946564,15.29674,1.174134,-41.06185
6.730408668,-0.1048659,0.2635694,-0.1592392,-0.000935798,-0.01953728,0.9902753,15.29674,1.174134,-41.06185
6.740488052,-0.1048696,0.08438485,-0.09818218,0.00534289,-0.02048211,0.9926978,14.56493,0.07383156,-40.63231
6.748047352,0.07990591,-0.09486714,-0.03713683,-0.00141727,-0.01711138,0.9927235,14.56493,0.07383156,-40.63231
6.758127212,0.01822731,0.02461902,0.02384352,0.000517305,-0.01709795,0.9946685,14.56493,0.07383156,-40.63231
6.768206119,-0.04331581,0.08439361,-0.03725427,0.000537607,-0.01899396,1.00001,14.56493,0.07383156,-40.63231
6.778285503,0.01829749,-0.03515446,0.02380285,0.001960791,-0.02292288,0.988306,14.56493,0.07383156,-40.63231
6.78836441,0.1415663,0.1440622,0.02381128,0.001003272,-0.01854434,0.9946594,15.67677,0.4271383,-40.62538
6.798443794,-0.04309478,0.1440689,0.08484921,-0.001871318,-0.02480978,0.9955968,15.67677,0.4271383,-40.62538
6.808523178,-0.04302129,0.1440568,0.0847618,0.003886228,-0.01662517,0.9927223,15.67677,0.4271383,-40.62538
6.818602085,0.1417094,0.2037752,0.145704,0.001973656,-0.02192539,0.9936648,15.67677,0.4271383,-40.62538
6.828681469,-0.04306792,0.08409591,0.2065314,-0.001393254,-0.02481842,0.9941365,15.67677,0.4271383,-40.62538
6.838760853,0.080162,0.08404659,-0.09862644,-0.000456028,-0.01857241,0.9902807,15.30285,0.8035574,-40.6257
6.84883976,-0.04307581,-0.1549432,0.145558,0.001976757,-0.02094888,0.9956173,15.30285,0.8035574,-40.6257
6.858919144,0.01845984,0.02440519,-0.09855124,0.000516532,-0.01515995,0.9961401,15.30285,0.8035574,-40.6257
6.868998527,-0.1662401,0.2634088,0.02347826,0.001974744,-0.01852863,0.9970918,15.30285,0.8035574,-40.6257
6.879077435,0.08024304,0.08403684,-0.1595439,-0.001880616,-0.02337502,0.993659,14.93255,1.180039,-40.18838
6.889156818,0.01864137,-0.03551078,-0.03749535,0.004833987,-0.01666044,0.986882,14.93255,1.180039,-40.18838
6.899235725,-0.1044805,-0.09519659,0.02352378,-0.002873008,-0.01907146,0.9878465,14.93255,1.180039,-40.18838
6.909315109,-0.04294506,0.08403917,0.02353256,-0.0038358,-0.01809868,0.9893129,14.93255,1.180039,-40.18838
6.919394493,-0.166067,-0.154913,-0.1595472,-0.00043387,-0.02337394,0.9936578,14.93255,1.180039,-40.18838
6.9294734,-0.1043768,0.02439774,-0.09837476,-0.002855958,-0.01806497,0.9946652,15.6657,1.538996,-41.05855
6.939552784,-0.04262878,0.143903,0.02367366,-0.003331233,-0.01805033,0.9970987,15.6657,1.538996,-41.05855
6.949632168,0.01900298,-0.09506807,-0.09839595,0.000509709,-0.01905395,0.9902771,15.6657,1.538996,-41.05855
6.959711075,-0.1040807,0.08424263,0.2067602,4.25E-05,-0.01999182,0.9946513,15.6657,1.538996,-41.05855
6.969790459,-0.04241037,-0.1547474,-0.1594466,0.001007608,-0.02241436,0.9926894,15.6657,1.538996,-41.05855
6.979869843,-0.0424151,0.08433115,0.02372718,-0.001407044,-0.0199989,0.993679,14.92893,1.179976,-40.62602
6.98994875,-0.04236186,-0.03523563,0.0236207,-0.000911779,-0.02288005,0.9956077,14.92893,1.179976,-40.62602
7.000028133,-0.04232802,0.0843633,0.1456501,-0.003361921,-0.01811631,0.9863929,14.92893,1.179976,-40.62602
7.01010704,0.019168,-0.03512843,0.02354226,-0.00336471,-0.01812231,0.9854196,14.92893,1.179976,-40.62602
7.020186424,0.1423391,-0.0948335,0.1455142,-0.003336199,-0.02484985,0.9892716,14.92893,1.179976,-40.62602
7.030265808,0.01919721,-0.09488329,-0.03771877,0.003884677,-0.01711342,0.9917461,15.30647,0.8036213,-40.18806
7.040344715,-0.04238581,0.08446468,0.02335812,-0.002838291,-0.01948173,0.9995227,15.30647,0.8036213,-40.18806
7.050424099,-0.227106,0.203932,0.02338629,-0.00379923,-0.02577872,0.9951057,15.30647,0.8036213,-40.18806
7.060503483,0.08085774,-0.09482614,-0.09866378,5.01E-05,-0.02240008,0.9951233,15.30647,0.8036213,-40.18806
7.068063259,0.01916462,0.02463019,0.02343071,0.002931956,-0.01951341,0.9936787,15.30647,0.8036213,-40.18806
7.078142643,0.1423744,-0.03513116,0.02343961,0.000521174,-0.02242371,0.9912298,15.6718,1.16842,-40.6224
7.08822155,0.1423696,0.0844864,-0.09862971,0.00390637,-0.0233707,0.9936545,15.6718,1.16842,-40.6224
7.098300934,0.08078659,-0.03494921,0.02357241,0.005815841,-0.01904699,0.9907597,15.6718,1.16842,-40.6224
7.108379841,-0.1039529,-0.1545163,-0.09845872,0.003425671,-0.02288281,0.9946312,15.6718,1.16842,-40.6224
7.118459224,0.01933415,0.0844869,0.08475348,-0.000445336,-0.02000418,0.9927052,15.6718,1.16842,-40.6224
7.128538608,0.01930986,0.2039167,-0.09840321,0.002909025,-0.01277388,0.9917732,15.29922,0.8034935,-41.06334
7.138617515,0.1423647,0.1439677,0.02368358,0.00342397,-0.01949205,0.9970848,15.29922,0.8034935,-41.06334
7.148696899,0.08070436,0.2036111,-0.0374332,-0.002365655,-0.02338138,0.9926862,15.29922,0.8034935,-41.06334
7.158776283,0.01914079,-0.1549333,0.023605,0.002941721,-0.01949241,0.9970852,15.29922,0.8034935,-41.06334
7.16885519,-0.04244213,0.2035875,-0.098522,3.40E-05,-0.01613081,0.9951614,15.29922,0.8034935,-41.06334
7.178934574,0.08067097,0.08405854,-0.03742624,3.06E-05,-0.01807781,0.9922298,15.29922,0.8034935,-41.06334
7.189013958,0.2038421,0.2632756,0.08464146,0.003400567,-0.01857254,0.9897912,15.29922,0.8034935,-41.06334
7.199092865,0.08060368,-0.09532502,-0.03756222,0.001495747,-0.0214315,0.9956147,15.29922,0.8034935,-41.06334
7.209172249,-0.042538,0.2034656,-0.09852539,-0.000442239,-0.02339193,0.9907382,15.29922,0.8034935,-41.06334
7.219251156,-0.1040435,-0.09534824,-0.03754462,-0.002372626,-0.01903211,0.9941723,15.29922,0.8034935,-41.06334
7.22933054,-0.1039321,-0.1551841,0.08448485,0.003445511,-0.02187032,1.002423,14.55634,0.8150492,-41.06697
7.239409923,0.01929691,-0.1549329,-0.09867147,-0.003819994,-0.0209742,0.9922152,14.55634,0.8150492,-41.06697
7.24948883,0.01927264,-0.0951017,0.02343482,-0.00140317,-0.0209604,0.9941599,14.55634,0.8150492,-41.06697
7.259568214,0.0191904,-0.03543948,-0.03771996,2.70E-05,-0.02051006,0.9888088,14.55634,0.8150492,-41.06697
7.269647598,0.2654406,0.08412216,-0.09877876,-0.000455411,-0.02099567,0.9883196,14.55634,0.8150492,-41.06697
7.279726505,0.01894891,0.02439869,-0.03772103,-0.00429697,-0.0175688,0.9971024,15.30285,0.8035574,-40.6257
7.289805889,0.01896379,0.143904,-0.03775032,0.001015667,-0.02336686,0.9946301,15.30285,0.8035574,-40.6257
7.299885273,0.01890131,-0.09508592,-0.09875157,0.001017528,-0.02190811,0.9965855,15.30285,0.8035574,-40.6257
7.30996418,0.2037284,0.08420601,-0.03769384,0.005343663,-0.02242011,0.9912261,15.30285,0.8035574,-40.6257
7.320043564,0.01898918,0.02442613,-0.03766565,-0.000929601,-0.02194854,0.9902607,15.30647,0.8036213,-40.18806
7.330123424,0.01902336,-0.0354288,0.145451,0.004387228,-0.01900908,0.997087,15.30647,0.8036213,-40.18806
7.340202808,-0.2272942,0.02430859,-0.09877303,0.001017834,-0.02530187,0.993645,15.30647,0.8036213,-40.18806
7.350281715,0.01905291,-0.0353585,-0.09880233,0.000523036,-0.02096496,0.9931852,15.30647,0.8036213,-40.18806
7.360361099,-0.04251057,-0.03523907,-0.03776372,0.002436536,-0.0171175,0.9912605,15.30647,0.8036213,-40.18806
7.370440006,-0.165575,0.02453558,0.08432356,-0.00478976,-0.02001641,0.9912485,14.93389,0.4386945,-40.62901
7.38051939,-0.1655411,-0.09491853,0.1453238,-0.002372008,-0.02145537,0.9922112,14.93389,0.4386945,-40.62901
7.388078689,-0.04222867,0.1440926,-0.2819046,5.12E-05,-0.02336758,0.9946308,14.93389,0.4386945,-40.62901
7.398158073,-0.2269104,0.1439866,0.1452919,0.002927616,-0.02000766,0.9917293,14.93389,0.4386945,-40.62901
7.40823698,0.01955223,0.08405659,0.02316537,0.003425671,-0.02288281,0.9946312,14.93389,0.4386945,-40.62901
7.418316364,-0.04212794,-0.03558491,0.02315543,-0.001904636,-0.02003225,0.9883266,15.30285,0.8035574,-40.6257
7.428395271,-0.042017,-0.03567157,0.145147,0.001477769,-0.02098523,0.989778,15.30285,0.8035574,-40.6257
7.438474655,-0.1651787,0.08374023,0.0840694,-0.005256047,-0.02240704,0.9946407,15.30285,0.8035574,-40.6257
7.448554039,-0.04196948,-0.095575,0.02297264,0.00295117,-0.02480618,0.9955931,15.30285,0.8035574,-40.6257
7.458632946,0.01962279,0.262815,0.0839733,0.001969782,-0.02096388,0.9931841,15.30285,0.8035574,-40.6257
7.46871233,-0.04205746,0.3822834,-0.03813371,0.001974433,-0.01949913,0.9961126,15.30285,0.8035574,-40.6257
7.478791714,-0.1037183,-0.03604691,-0.1602215,0.000523347,-0.01999446,0.9941643,15.30285,0.8035574,-40.6257
7.488870621,-0.1036847,0.02382259,0.1450123,-0.003818133,-0.01951544,0.9941705,15.30285,0.8035574,-40.6257
7.498950004,0.019486,-0.03588143,0.08393484,-0.003328909,-0.01950009,0.9966034,15.30285,0.8035574,-40.6257
7.509029388,0.01953887,-0.03593013,-0.03822961,-0.00527139,-0.02244003,0.9892877,15.30285,0.8035574,-40.6257
7.519108295,0.01959169,-0.09576555,-0.03827742,4.51E-05,-0.02047107,0.995135,15.29922,0.8034935,-41.06334
7.529187679,0.01958641,0.08356477,-0.03824852,0.003417613,-0.0219303,0.9926905,15.29922,0.8034935,-41.06334
7.539266586,-0.1037107,-0.03600102,0.02279071,-0.002381617,-0.02099111,0.9892942,15.29922,0.8034935,-41.06334
7.54934597,0.1426745,0.1433105,0.08384909,0.005814446,-0.01904999,0.9902731,15.29922,0.8034935,-41.06334
7.559425354,-0.0420847,0.0836065,0.02277174,-0.002371701,-0.02484913,0.9892708,15.29922,0.8034935,-41.06334
7.569504261,-0.1037455,0.0835578,0.08381099,0.001003423,-0.02242335,0.9912294,15.66818,1.168356,-41.06004
7.579583645,0.01934795,0.1432959,0.08372489,5.40E-05,-0.02336158,0.9956041,15.66818,1.168356,-41.06004
7.589663505,-0.1653724,0.2029213,-0.03834346,-0.001388603,-0.02335367,0.997065,15.66818,1.168356,-41.06004
7.599742889,-0.04222096,-0.03619891,-0.03833362,0.001959245,-0.01904687,0.9912491,15.66818,1.168356,-41.06004
7.609821796,-0.1037655,0.1430378,0.02260989,-0.0009093,-0.02384456,0.9956019,15.66818,1.168356,-41.06004
7.61990118,0.01944397,-0.03633313,0.02260065,-0.002863088,-0.01856522,0.9917424,14.92893,1.179976,-40.62602
7.629980564,-0.04212001,-0.09607418,-0.09941007,0.002450329,-0.01757276,0.9956374,14.92893,1.179976,-40.62602
7.640059471,-0.1652816,-0.09599103,0.08365002,0.001491407,-0.02192575,0.9936652,14.92893,1.179976,-40.62602
7.650138855,0.01954466,-0.09600181,0.0835641,5.01E-05,-0.02240008,0.9951233,14.92893,1.179976,-40.62602
7.660218239,0.01957813,0.1430217,0.08349747,0.000535901,-0.01996747,0.9985441,14.92893,1.179976,-40.62602
7.670297146,0.01955352,-0.09613594,-0.09967679,0.001008847,-0.02289661,0.9926865,15.67066,0.7977152,-41.06153
7.68037653,0.01958698,0.02338937,0.08342193,0.001004356,-0.01951185,0.9941669,15.67066,0.7977152,-41.06153
7.690455437,0.01954302,-0.1558688,0.02234513,-0.000460524,-0.01955191,0.9878417,15.67066,0.7977152,-41.06153
7.698014736,-0.04205364,-0.2752766,-0.0997733,-0.002857819,-0.01952372,0.9927099,15.67066,0.7977152,-41.06153
7.70809412,-0.1036371,-0.2752123,0.02235357,-0.003327674,-0.0243466,0.992681,15.67066,0.7977152,-41.06153
7.718173504,0.08126653,0.02359779,0.08337415,0.002946834,-0.02093617,0.9975631,15.30285,0.8035574,-40.6257
7.728252411,-0.1650518,-0.03612471,-0.1607528,0.001956455,-0.01905287,0.990276,15.30285,0.8035574,-40.6257
7.738331795,0.1428727,0.02372614,0.08339471,0.001982954,-0.02336014,0.9956026,15.30285,0.8035574,-40.6257
7.748411179,0.01971081,0.02358377,0.02226043,0.001470484,-0.02197073,0.9863657,15.30285,0.8035574,-40.6257
7.758490086,0.08120625,-0.03613875,0.3883712,0.001960484,-0.01952912,0.9912462,15.30285,0.8035574,-40.6257
7.768569469,-0.04207157,0.02358074,0.08304248,0.001974123,-0.02046963,0.9951335,14.92778,0.8092713,-41.06516
7.778648376,0.08107977,-0.1557152,0.082919,0.000499171,-0.01713694,0.9883423,14.92778,0.8092713,-41.06516
7.78872776,0.2042504,0.0236529,0.08289151,4.65E-05,-0.02046807,0.9956217,14.92778,0.8092713,-41.06516
7.798807144,0.01941385,0.02371701,0.02183455,0.004864048,-0.02289973,0.9917102,14.92778,0.8092713,-41.06516
7.808886051,0.01940885,-0.1555603,-0.1612431,-0.000444563,-0.02194218,0.9912334,14.92778,0.8092713,-41.06516
7.818965435,0.01944248,-0.03605423,0.2049832,0.00437917,-0.01805658,0.9951463,15.30285,0.8035574,-40.6257
7.829044819,0.01953412,-0.03599016,-0.03925815,0.001008541,-0.01950285,0.9956268,15.30285,0.8035574,-40.6257
7.83912468,0.0810298,0.08362849,-0.1002192,0.001477618,-0.01710623,0.9932079,15.30285,0.8035574,-40.6257
7.849203587,-0.04228647,0.08350468,-0.03912133,-0.001401619,-0.02047215,0.9951361,15.30285,0.8035574,-40.6257
7.85928297,-0.04231071,-0.09577274,0.021919,-0.001870385,-0.02189827,0.9985342,15.30285,0.8035574,-40.6257
7.869362354,0.08084092,0.08342621,-0.03913805,0.000522885,-0.01708595,0.9966151,15.29922,0.8034935,-41.06334
7.879441261,-0.103918,-0.03617695,0.08297013,0.001955834,-0.02099387,0.9883178,15.29922,0.8034935,-41.06334
7.889520645,0.08088923,0.02365523,-0.2221474,0.002460396,-0.02530979,0.9921841,15.29922,0.8034935,-41.06334
7.899599552,0.01922872,-0.03601108,-0.1611264,0.000514671,-0.0166187,0.9941848,15.29922,0.8034935,-41.06334
7.909678936,0.1422644,0.2030309,0.02189614,0.001958938,-0.01565311,0.9941895,14.92893,1.179976,-40.62602
7.91975832,0.1421824,0.02367842,0.1439468,0.000515754,-0.0175862,0.9936922,14.92893,1.179976,-40.62602
7.929837227,-0.1042705,-0.1555988,0.08288984,0.00148242,-0.01952048,0.9927066,14.92893,1.179976,-40.62602
7.939916611,-0.1041976,-0.03603638,0.02185205,0.000533573,-0.02288197,0.99512,14.92893,1.179976,-40.62602
7.949995995,0.01897375,0.2029869,0.2049706,-0.001422698,-0.02100239,0.987347,14.92893,1.179976,-40.62602
7.960074902,0.08048948,-0.09592018,0.0829225,0.001004356,-0.01951185,0.9941669,15.6718,1.16842,-40.6224
7.970154285,-0.1043657,0.02356733,0.02175049,-0.001893788,-0.02097876,0.9912404,15.6718,1.16842,-40.6224
7.980233669,0.2651381,-0.2154403,0.08275265,0.001487223,-0.02193474,0.9922053,15.6718,1.16842,-40.6224
7.990312576,-0.04283472,-0.1557395,-0.1004973,0.004868233,-0.02289073,0.9931701,15.6718,1.16842,-40.6224
8.00039196,0.01879732,0.2027261,0.02164962,-0.000441928,-0.02242143,0.9917172,15.6718,1.16842,-40.6224
8.010470867,-0.2274619,0.1429099,-0.03942626,0.00147932,-0.02049698,0.9907542,15.67677,0.4271383,-40.62538
8.018030167,-0.04260957,0.1429254,0.08263157,0.002943267,-0.02336842,0.9941419,15.67677,0.4271383,-40.62538
8.02810955,-0.1041343,-0.0363516,0.02151745,-0.00093208,-0.02098403,0.9902665,15.67677,0.4271383,-40.62538
8.038188934,0.08049916,-0.03630593,0.02154793,1.51E-05,-0.01423179,0.9903067,15.67677,0.4271383,-40.62538
8.048267841,-0.1659149,-0.03627909,0.02146338,0.001495441,-0.01803774,0.9985551,15.67677,0.4271383,-40.62538
8.058347225,-0.04266609,0.02351565,0.08246593,-0.001428118,-0.01616488,0.9898095,14.55997,0.8151131,-40.62933
8.068426609,0.08048598,-0.09599353,-0.03960083,-0.001891305,-0.017579,0.995154,14.55997,0.8151131,-40.62933
8.078505516,0.08046226,0.1430862,0.02147842,0.002935519,-0.02144541,0.9931804,14.55997,0.8151131,-40.62933
8.0885849,-0.1658938,0.02346446,0.02143228,0.001969782,-0.02096388,0.9931841,14.55997,0.8151131,-40.62933
8.098664761,-0.1042425,0.02343498,0.02140538,0.002454359,-0.01804901,0.9966078,14.55997,0.8151131,-40.62933
8.108743667,0.142124,0.02336799,0.08233132,0.00339282,-0.01664953,0.9888296,14.93026,0.4386306,-41.06665
8.118823051,-0.1043481,-0.2754073,0.02117924,3.91E-05,-0.02193882,0.9917197,14.93026,0.4386306,-41.06665
8.128902435,0.08036298,0.08322734,0.08212466,3.68E-05,-0.02048907,0.9922152,14.93026,0.4386306,-41.06665
8.138981342,-0.1659542,0.1429846,0.2040805,0.001467698,-0.01761247,0.9893118,14.93026,0.4386306,-41.06665
8.149060726,-0.1043416,-0.09604163,-0.04015967,0.001983887,-0.02044864,0.99854,14.93026,0.4386306,-41.06665
8.15914011,-0.1043072,0.2027499,0.0818923,0.003866237,-0.01375866,0.9883602,15.67066,0.7977152,-41.06153
8.169219017,0.08051983,0.1427648,-0.04026959,0.002457611,-0.02095152,0.9951302,15.67066,0.7977152,-41.06153
8.179298401,0.01893715,-0.03653069,0.02075302,0.00051591,-0.01710095,0.9941818,15.67066,0.7977152,-41.06153
8.189377785,-0.04256817,0.2024932,-0.1012746,0.002927616,-0.02000766,0.9917293,15.67066,0.7977152,-41.06153
8.199456692,0.08058377,0.08300313,-0.1013007,0.001497298,-0.02094325,0.996591,15.67066,0.7977152,-41.06153
8.209536075,-0.0427126,-0.03652444,0.1428871,0.000539153,-0.02286997,0.9970665,14.93389,0.4386945,-40.62901
8.219614982,-0.04265895,0.2024056,0.1427843,0.005840634,-0.02432777,0.9946206,14.93389,0.4386945,-40.62901
8.229694366,-0.04268271,-0.03654514,-0.04044519,3.60E-05,-0.02291532,0.9897674,14.93389,0.4386945,-40.62901
8.23977375,-0.2890194,0.08298036,0.0205393,0.001965753,-0.02048763,0.9922137,14.93389,0.4386945,-40.62901
8.249852657,0.08060031,-0.2158135,-0.04053519,-0.001889759,-0.02145501,0.9922108,14.93389,0.4386945,-40.62901
8.259932041,-0.04261874,-0.03653877,0.0816514,0.004361502,-0.01663981,0.9902888,15.30285,0.8035574,-40.6257
8.270011425,0.018955,-0.03649288,-0.1623584,0.001494046,-0.01804074,0.9980684,15.30285,0.8035574,-40.6257
8.280090332,0.01893122,0.0830138,0.08182944,0.001501016,-0.02239,0.9965822,15.30285,0.8035574,-40.6257
8.290169716,-0.2273862,0.0232917,0.0818225,0.002930411,-0.0156374,0.9966221,15.30285,0.8035574,-40.6257
8.3002491,-0.1041375,0.08301163,-0.1013305,0.001973501,-0.02241063,0.9931753,15.30285,0.8035574,-40.6257
8.310328007,-0.0424865,-0.155958,-0.1013374,0.001013188,-0.02240236,0.9946359,14.55997,0.8151131,-40.62933
8.32040739,0.01908713,-0.09616303,-0.04029556,1.03E-05,-0.02054605,0.9829692,14.55997,0.8151131,-40.62933
8.330486297,0.01908251,0.2026474,-0.04024493,0.00101257,-0.0199791,0.9965972,14.55997,0.8151131,-40.62933
8.338045597,-0.1039566,-0.09615809,0.08183285,0.001480559,-0.02097924,0.9907513,14.55997,0.8151131,-40.62933
8.348124981,-0.04238313,0.2026711,-0.04032897,-0.003338829,-0.02000633,0.9927074,14.55997,0.8151131,-40.62933
8.358204841,-0.0423879,0.02343168,0.2647159,0.004389396,-0.02094409,0.996102,14.55634,0.8150492,-41.06697
8.368284225,0.08068644,0.1429007,0.1426502,0.000533267,-0.01948821,0.9980603,14.55634,0.8150492,-41.06697
8.378363132,-0.04251337,0.2025267,-0.04048329,0.003420714,-0.0209538,0.9946429,14.55634,0.8150492,-41.06697
8.388442516,0.1422167,0.02315608,0.203609,0.001492958,-0.0214375,0.9946414,14.55634,0.8150492,-41.06697
8.3985219,-0.0425419,0.0828011,0.1424004,-0.003790239,-0.02381972,0.9999838,14.55634,0.8150492,-41.06697
8.408600807,-0.1041247,0.08269712,0.02029666,0.001496987,-0.02191375,0.9956118,15.30285,0.8035574,-40.6257
8.418680191,-0.04247373,-0.09654172,-0.04072002,0.001005289,-0.01660034,0.9971042,15.30285,0.8035574,-40.6257
8.428759098,0.01906117,0.02302166,0.08133266,-0.00334069,-0.02146509,0.9907521,15.30285,0.8035574,-40.6257
8.438838482,-0.1041192,-0.09644933,0.1422409,0.00197629,-0.02240464,0.9941485,15.30285,0.8035574,-40.6257
8.448917866,-0.0425456,-0.2756696,0.02007981,0.002461329,-0.02239828,0.9951214,15.30285,0.8035574,-40.6257
8.458996773,-0.4119616,-0.09643229,-0.1019469,0.004889774,-0.025269,0.9985086,14.92893,1.179976,-40.62602
8.469076156,-0.1654987,-0.09638622,0.08121216,0.004861103,-0.02339097,0.9902474,14.92893,1.179976,-40.62602
8.47915554,-0.1037899,0.02319568,-0.1629312,0.001951186,-0.01809436,0.9893085,14.92893,1.179976,-40.62602
8.489234447,-0.04217799,0.2025079,-0.0407059,0.001988689,-0.0228629,0.9980387,14.92893,1.179976,-40.62602
8.499313831,0.08095412,0.1426545,0.02037473,0.002459778,-0.02288653,0.9941452,15.67429,0.7977791,-40.62389
8.509393215,0.01935155,-0.0365846,-0.0407187,0.001966371,-0.02291088,0.9902526,15.67429,0.7977791,-40.62389
8.519472122,-0.04228969,-0.2158237,-0.1627649,0.005331419,-0.0214766,0.9878256,15.67429,0.7977791,-40.62389
8.529551506,-0.04239131,0.02318141,0.0203364,0.001479475,-0.02001173,0.9912437,15.67429,0.7977791,-40.62389
8.539630413,0.08076043,-0.09636483,0.02033003,0.003893971,-0.02291244,0.9897645,15.67429,0.7977791,-40.62389
8.549709797,-0.04242012,0.1426216,0.08133401,-0.001407661,-0.01757564,0.9956403,14.55138,1.55633,-41.06398
8.559789181,0.01913407,0.02318804,0.08128935,-0.000439912,-0.02047743,0.9941621,14.55138,1.55633,-41.06398
8.569868088,0.08063025,0.08292687,-0.04083347,0.001001722,-0.01903259,0.9936831,14.55138,1.55633,-41.06398
8.579947472,-0.04253081,0.08287901,0.1422872,0.001977219,-0.02385739,0.9931665,14.55138,1.55633,-41.06398
8.590026855,0.08060173,0.08284996,-0.04080755,0.000522263,-0.01902696,0.9946568,14.55138,1.55633,-41.06398
8.600105762,-0.0425013,0.08287726,-0.0408138,0.002462413,-0.02336578,0.994629,14.92778,0.8092713,-41.06516
8.610185146,0.2038264,0.0231178,-0.1017921,-0.00093921,-0.02148428,0.9873437,14.92778,0.8092713,-41.06516
8.62026453,0.01891299,-0.03667917,-0.04069223,-0.001858453,-0.02381228,1.000956,14.92778,0.8092713,-41.06516
8.630343437,-0.1657875,-0.2158619,-0.04066027,0.001492798,-0.026287,0.9902325,14.92778,0.8092713,-41.06516
8.640422821,0.08063703,-0.155973,0.1423644,0.002455442,-0.01901652,0.9961151,14.92778,0.8092713,-41.06516
8.647982597,0.2653345,0.02330895,0.02019038,0.001497604,-0.024337,0.9936505,15.66932,1.53906,-40.62091
8.658061981,0.01886228,0.02333597,0.08123286,-0.001883402,-0.01901676,0.9966053,15.66932,1.53906,-40.62091
8.668140888,0.08045553,-0.09613544,0.08120751,0.002462262,-0.01948677,0.9980589,15.66932,1.53906,-40.62091
8.678220272,-0.1658425,0.2026562,0.081163,0.001481647,-0.01758248,0.9941782,15.66932,1.53906,-40.62091
8.688299656,0.08048541,-0.275423,0.02014654,-0.001888675,-0.02242251,0.9917183,15.66932,1.53906,-40.62091
8.698378563,0.080539,-0.1558226,0.02004457,3.71E-05,-0.01951856,0.9931943,15.30533,0.4329166,-40.62719
8.708457947,0.01887894,0.02350805,0.0200194,-0.002848832,-0.02192898,0.9936684,15.30533,0.4329166,-40.62719
8.718537331,-0.1042626,-0.155769,0.1421108,0.000525515,-0.02192946,0.9931793,15.30533,0.4329166,-40.62719
8.728616238,-0.0426694,-0.03633769,-0.1020708,-0.000453394,-0.01905167,0.9907645,15.30533,0.4329166,-40.62719
8.738695621,0.2036391,0.08316879,-0.0410089,0.001501945,-0.02384276,0.9956,15.30533,0.4329166,-40.62719
8.748775005,-0.04271683,0.08321447,0.1421311,-0.000450449,-0.01856042,0.9922273,14.92645,1.550616,-40.62453
8.758853912,0.08047397,-0.03627584,-0.1020504,0.001479168,-0.01661798,0.994184,14.92645,1.550616,-40.62453
8.768933296,-0.1043618,-0.03624903,0.1421191,0.000523809,-0.02290297,0.9917135,14.92645,1.550616,-40.62453
8.779012203,-0.1042694,-0.03618473,-0.3461613,-0.000445957,-0.02194518,0.9907469,14.92645,1.550616,-40.62453
8.789091587,-0.1041771,-0.03604542,0.02008638,0.001944838,-0.0118041,0.9927531,14.92645,1.550616,-40.62453
8.799170971,-0.04256472,-0.09578684,0.02011866,-0.000437281,-0.02532094,0.9907265,14.56112,1.185818,-40.19019
8.809249878,0.01908633,-0.03604867,0.02018921,0.001969938,-0.02047863,0.9936736,14.56112,1.185818,-40.19019
8.819329262,0.01900434,0.1432254,0.0812317,0.00245296,-0.02241627,0.9922016,14.56112,1.185818,-40.19019
8.829408646,-0.104118,0.02356595,-0.04085268,0.001960484,-0.01952912,0.9912462,14.56112,1.185818,-40.19019
8.839487553,-0.04262167,-0.2154041,-0.04087804,-0.000930685,-0.02098103,0.9907532,14.56112,1.185818,-40.19019
8.849566936,-0.165918,-0.03596106,0.08115565,0.000513893,-0.01904495,0.9917369,15.66818,1.168356,-41.06004
8.85964632,-0.1042474,0.02379575,-0.1020348,0.002456989,-0.02289253,0.993172,15.66818,1.168356,-41.06004
8.869725227,0.1420804,-0.03592705,-0.04093466,4.36E-05,-0.02095932,0.9941588,15.66818,1.168356,-41.06004
8.879804611,0.01890019,0.08357891,-0.04094073,0.001992096,-0.02528016,0.9970508,15.66818,1.168356,-41.06004
8.889883518,-0.1658583,0.08353022,-0.04087014,-0.001885574,-0.02144601,0.9936706,15.66818,1.168356,-41.06004
8.899962902,0.1420479,0.08351913,-0.04083796,0.005335608,-0.01710335,0.993205,15.67677,0.4271383,-40.62538
8.910042286,-0.04274925,-0.03602783,0.3252946,0.001964203,-0.02097588,0.9912375,15.67677,0.4271383,-40.62538
8.920121193,-0.1042932,0.08345947,-0.04104193,-0.000430925,-0.02288269,0.9951207,15.67677,0.4271383,-40.62538
8.930200577,-0.1043556,-0.09578033,0.08099198,0.002915373,-0.01906415,0.9883288,15.67677,0.4271383,-40.62538
8.940279961,-0.04280097,0.02366948,0.08090945,-0.002363794,-0.02192263,0.9946414,15.29922,0.8034935,-41.06334
8.950358868,0.01867631,0.0834077,0.01977831,0.004857078,-0.01855046,0.9931965,15.29922,0.8034935,-41.06334
8.960438728,0.01865283,-0.03606407,0.080783,-0.003334644,-0.01999734,0.9941672,15.29922,0.8034935,-41.06334
8.967998028,0.08025219,-0.215334,0.0196582,0.002929318,-0.02339841,0.9892756,15.29922,0.8034935,-41.06334
8.978077412,0.1417876,-0.03602235,-0.04137684,0.001964047,-0.02146113,0.990748,15.29922,0.8034935,-41.06334
8.988156319,-0.04300911,0.08346497,-0.04138237,0.002459317,-0.01997802,0.9965961,15.29922,0.8034935,-41.06334
8.998235703,-0.1045333,-0.09575609,-0.1634086,0.001010242,-0.02289361,0.9931731,15.29674,1.174134,-41.06185
9.008315086,0.08023603,-0.03594292,0.1417717,0.001022175,-0.02480762,0.9955946,15.29674,1.174134,-41.06185
9.018393993,0.08011591,-0.1554149,-0.1024669,-0.000434492,-0.02531495,0.9916996,15.29674,1.174134,-41.06185
9.028473377,0.0184177,0.02387774,-0.04136619,-0.002859521,-0.01613296,0.9951636,15.29674,1.174134,-41.06185
9.038552761,-0.1662241,-0.03592019,0.01981114,-0.00428008,-0.02141182,0.9995121,15.29426,1.544774,-41.06036
9.048631668,0.01854534,-0.03589384,-0.04143491,0.001000789,-0.0219441,0.9907458,15.29426,1.544774,-41.06036
9.058711052,0.01865741,-0.2151151,0.141629,0.003423193,-0.02191831,0.994637,15.29426,1.544774,-41.06036
9.068790436,0.1418291,-0.2150138,0.01937292,-0.003333094,-0.01950909,0.9951434,15.29426,1.544774,-41.06036
9.078869343,-0.04296769,-0.09532042,0.08039725,0.004876914,-0.02190223,0.9970691,15.29426,1.544774,-41.06036
9.088948727,-0.04291371,-0.03552658,0.08035377,0.005810879,-0.02148224,0.986852,14.92893,1.179976,-40.62602
9.099027634,0.08019997,-0.03546318,0.01931917,0.000530628,-0.02337322,0.9936571,14.92893,1.179976,-40.62602
9.109107017,-0.04297988,0.2035218,0.01933323,0.006770112,-0.01615876,0.9898032,14.92893,1.179976,-40.62602
9.119186401,-0.1661597,-0.09529211,0.01930895,0.001010247,-0.01852935,0.9970925,14.92893,1.179976,-40.62602
9.129265308,0.0186483,-0.1549591,-0.1026593,-0.000447197,-0.02146293,0.9907499,14.92893,1.179976,-40.62602
9.139344692,-0.1044543,0.203618,0.01947113,0.003913037,-0.01996195,0.9990281,15.31144,0.06233978,-40.19104
9.149424076,0.01871738,-0.03548438,-0.04160204,0.002431419,-0.020038,0.9868634,15.31144,0.06233978,-40.19104
9.159502983,0.08023344,0.08400223,0.2024532,-0.000430618,-0.02627645,0.9921804,15.31144,0.06233978,-40.19104
9.169582367,0.0187865,0.08415943,-0.1638439,0.001012566,-0.02434336,0.9926777,15.31144,0.06233978,-40.19104
9.179661751,-0.1042969,-0.09513754,-0.04171329,0.00147808,-0.02001473,0.9907572,15.31144,0.06233978,-40.19104
9.189740658,0.01895193,-0.03543773,0.08034064,0.001005751,-0.01950885,0.9946535,14.92034,1.921193,-41.06068
9.199820041,-0.1041897,-0.03533693,0.1413842,0.005345835,-0.01999086,0.9941606,14.92034,1.921193,-41.06068
9.209898948,-0.04271265,-0.03551771,-0.04172856,4.57E-05,-0.02289433,0.9931738,14.92034,1.921193,-41.06068
9.219978332,-0.1042373,-0.03556693,0.01925754,0.00148087,-0.02000874,0.9917303,14.92034,1.921193,-41.06068
9.230058193,-0.1657232,0.1437253,0.01925253,0.001494815,-0.024343,0.9926773,14.92034,1.921193,-41.06068
9.240137577,0.01908434,-0.09541441,0.1411723,0.000527998,-0.01852971,0.9970928,14.93141,0.8093352,-40.62751
9.250216484,-0.04257587,0.08387793,-0.04197849,0.001988689,-0.0228629,0.9980387,14.93141,0.8093352,-40.62751
9.260295868,-0.04258041,0.3228631,0.01887377,0.001009936,-0.01949985,0.9961134,14.93141,0.8093352,-40.62751
9.270375252,0.08055219,-0.03568099,0.01883091,0.001001877,-0.01854734,0.9941727,14.93141,0.8093352,-40.62751
9.280454159,0.2652631,0.02407547,0.07991346,-0.000454012,-0.01662841,0.9927257,14.93141,0.8093352,-40.62751
9.288013458,-0.04270398,-0.03575271,0.01888533,0.00199024,-0.02237464,0.9990149,15.30285,0.8035574,-40.6257
9.298092842,0.08037075,0.02404139,0.01889996,0.001001255,-0.02048835,0.9922144,15.30285,0.8035574,-40.6257
9.308171749,-0.04288666,-0.09550595,-0.1031828,-0.001893011,-0.0185525,0.9936882,15.30285,0.8035574,-40.6257
9.318251133,-0.04281347,0.02401859,-0.2251697,0.003438998,-0.02479383,0.9975392,15.30285,0.8035574,-40.6257
9.328330517,-0.1659162,0.08360623,0.1410793,-0.00139062,-0.02529767,0.9946202,15.30285,0.8035574,-40.6257
9.338409424,0.01908499,0.02388339,0.01899644,0.002463653,-0.02384803,0.994626,15.67677,0.4271383,-40.62538
9.348488808,-0.1039601,-0.09558865,-0.04201859,-0.002842169,-0.02288449,0.9951226,15.67677,0.4271383,-40.62538
9.358568191,0.01926897,0.1433592,0.01902536,0.001016755,-0.01997011,0.998057,15.67677,0.4271383,-40.62538
9.368647098,0.01936082,-0.09561116,0.01903979,0.003434814,-0.02480282,0.9960793,15.67677,0.4271383,-40.62538
9.378726482,0.1424736,-0.09567869,-0.04197531,0.002953649,-0.02577069,0.9955872,15.67677,0.4271383,-40.62538
9.388805866,-0.2269621,-0.1553828,-0.04203757,-0.001879377,-0.02385727,0.993656,15.29311,1.17407,-41.49949
9.398884773,-0.04223232,-0.09551346,0.2630861,-0.000899229,-0.02721732,0.9960679,15.29311,1.17407,-41.49949
9.408964157,0.08097722,-0.03579442,0.07991633,0.0043818,-0.02290009,0.9917105,15.29311,1.17407,-41.49949
9.419043064,0.01935529,-0.09549864,0.07983514,0.001500399,-0.01996675,0.9985433,15.29311,1.17407,-41.49949
9.429122448,0.019331,0.02402587,-0.04234332,0.005325222,-0.01906534,0.9878402,15.29311,1.17407,-41.49949
9.439201832,-0.04225219,-0.1551017,-0.04230928,-0.001865117,-0.02285678,0.9995015,15.29674,1.174134,-41.06185
9.449280739,-0.1652976,-0.03537102,-0.04233278,0.001931969,-0.01716585,0.9834749,15.29674,1.174134,-41.06185
9.459360123,-0.04204951,-0.154825,0.07974108,-0.003333094,-0.01950909,0.9951434,15.29674,1.174134,-41.06185
9.469439506,0.08119847,0.02456077,-0.0423606,-0.002843098,-0.02143174,0.9961045,15.29674,1.174134,-41.06185
9.479518413,0.01965363,0.02456744,0.01870293,0.001033023,-0.02575413,0.9985086,15.29674,1.174134,-41.06185
9.489597797,-0.1035276,0.08434203,0.01877527,0.000518851,-0.02097396,0.9917252,15.30285,0.8035574,-40.6257
9.499677658,0.0812792,0.02448691,0.1409257,-0.001412312,-0.01904039,0.9927118,15.30285,0.8035574,-40.6257
9.509757042,-0.1034996,-0.09494841,0.1408829,0.001970711,-0.02241663,0.992202,15.30285,0.8035574,-40.6257
9.519835949,0.1427886,0.02461294,0.2629949,0.004393266,-0.02626985,0.9926634,15.30285,0.8035574,-40.6257
9.529915333,-0.1036263,-0.03505454,0.1407398,0.001948548,-0.02197937,0.9849054,14.92778,0.8092713,-41.06516
9.539994717,0.08118056,-0.09477846,0.01850395,-0.002361932,-0.02046387,0.9965969,14.92778,0.8092713,-41.06516
9.550073624,0.01951971,-0.2143079,-0.04258715,-0.001895183,-0.02098176,0.9907539,14.92778,0.8092713,-41.06516
9.560153007,-0.04200568,0.08451952,0.01847666,0.002457144,-0.02240728,0.9936615,14.92778,0.8092713,-41.06516
9.570231914,-0.04197226,0.02483307,0.07950212,0.002443044,-0.01855826,0.9922251,14.92778,0.8092713,-41.06516
9.580311298,-0.165134,0.1442627,-0.04263759,0.001016599,-0.02045536,0.9975674,15.67066,0.7977152,-41.06153
9.590390682,0.01965341,0.1442129,-0.04266069,0.001500705,-0.02336051,0.995603,15.67066,0.7977152,-41.06153
9.600469589,0.01955136,0.1442569,0.0183074,-0.00091953,-0.0253213,0.9907268,15.67066,0.7977152,-41.06153
9.608028889,0.01955228,0.08444691,-0.1037305,0.002451565,-0.02241927,0.991715,15.67066,0.7977152,-41.06153
9.618108272,-0.165091,0.2038205,-0.0426474,0.002944666,-0.01900116,0.9985481,15.67066,0.7977152,-41.06153
9.628187179,0.01975445,-0.03524462,0.1403989,0.003405529,-0.01613728,0.9936988,15.30285,0.8035574,-40.6257
9.638266563,-0.1034269,0.0245113,-0.1037805,-0.000434021,-0.01949493,0.9970877,15.30285,0.8035574,-40.6257
9.648345947,-0.04179606,-0.0950554,0.2014207,0.000501495,-0.01858669,0.9878469,15.30285,0.8035574,-40.6257
9.658424854,0.01985401,-0.03533694,-0.1647986,0.005347386,-0.01950261,0.9951368,15.30285,0.8035574,-40.6257
9.668504238,-0.1648863,-0.09502298,0.07931563,0.000499633,-0.02004544,0.9858915,15.30285,0.8035574,-40.6257
9.678583622,0.08145969,-0.1547091,0.2013325,0.001496987,-0.02191375,0.9956118,14.93141,0.8093352,-40.62751
9.688662529,-0.04183781,0.1440623,0.1401652,0.001494815,-0.024343,0.9926773,14.93141,0.8093352,-40.62751
9.698741913,-0.04190127,-0.154677,0.1399891,-0.000893805,-0.02769057,0.997525,14.93141,0.8093352,-40.62751
9.708821297,0.08119179,0.08434513,0.07887959,0.001031317,-0.02672763,0.9970427,14.93141,0.8093352,-40.62751
9.718900204,-0.04196999,0.08431426,0.01780852,0.000536821,-0.03014874,0.9897231,14.93141,0.8093352,-40.62751
9.728979587,0.01950623,0.02445917,0.3227612,-0.004790697,-0.02729218,0.9843918,14.93141,0.8093352,-40.62751
9.739058495,-0.2267732,0.02448475,0.01724659,0.00247527,-0.03109681,0.9921489,14.93141,0.8093352,-40.62751
9.749137878,-0.1035446,0.02447278,0.3222383,-0.002342408,-0.02478615,0.9994901,14.93141,0.8093352,-40.62751
9.759217262,0.1427823,0.1439592,0.3217761,0.002481786,-0.02380905,1.000952,14.93141,0.8093352,-40.62751
9.769297123,0.1428351,-0.1547049,0.4435459,2.71E-05,-0.02002481,0.9892983,14.93141,0.8093352,-40.62751
9.77937603,0.01953785,0.1440477,0.1379946,-0.000447193,-0.01709867,0.9946693,15.66818,1.168356,-41.06004
9.789455414,-0.04196824,-0.03523061,0.1987933,0.001932595,-0.01086059,0.9893525,15.66818,1.168356,-41.06004
9.799534798,-0.1035325,-0.3339135,0.07646541,0.001927641,-0.00456732,0.9932836,15.66818,1.168356,-41.06004
9.809613705,-0.1650001,0.1442554,0.01530151,0.004858482,-0.009818945,1.001522,15.66818,1.168356,-41.06004
9.819693088,0.01984525,0.08434382,-0.1067959,0.004376233,-0.009819306,1.001522,15.66818,1.168356,-41.06004
9.829772472,0.01976231,0.2038863,-0.1066235,0.001437637,-0.01137319,0.9844837,14.93141,0.8093352,-40.62751
9.839851379,0.08129638,0.08431952,-0.2284911,0.001930578,-0.01280459,0.9869077,14.93141,0.8093352,-40.62751
9.849930763,-0.1034824,-0.09486506,-0.2281657,0.002424141,-0.01229499,0.9912898,14.93141,0.8093352,-40.62751
9.860010147,-0.1033138,0.08444534,-0.3498423,0.004399005,-0.02140835,0.999019,14.93141,0.8093352,-40.62751
9.870089054,-0.1032807,0.02468392,-0.4104132,0.004384753,-0.01368032,1.001012,14.93141,0.8093352,-40.62751
9.880168438,-0.1648066,0.2038066,-0.5930246,-0.000446731,-0.02000717,0.9922185,15.30037,1.174198,-40.62421
9.890247345,0.08159739,0.2037195,-0.5314227,0.004840801,-0.02149496,0.9849061,15.30037,1.174198,-40.62421
9.900326729,-0.1031045,-0.09500078,-0.408907,-0.003803881,-0.02724347,0.9921771,15.30037,1.174198,-40.62421
9.910406113,0.143338,0.02456064,-0.2254007,0.001028527,-0.02673363,0.9960694,15.30037,1.174198,-40.62421
9.92048502,0.02013689,-0.154624,-0.1028669,0.000545812,-0.02818974,0.9946011,15.30037,1.174198,-40.62421
9.928044319,0.2048913,-0.09484171,-0.2246948,0.003935503,-0.02815723,0.9994649,15.30533,0.4329166,-40.62719
9.938123703,0.02015063,0.2637163,-0.1633448,0.004877216,-0.02966025,0.9902094,15.30533,0.4329166,-40.62719
9.94820261,0.02012531,0.02468852,-0.1020142,-0.00138396,-0.03061744,0.9921548,15.30533,0.4329166,-40.62719
9.958281994,0.1432759,-0.03497908,0.0200771,0.001517746,-0.03108253,0.9945828,15.30533,0.4329166,-40.62719
9.968361378,0.0200748,0.02483282,0.08111973,0.002984639,-0.03346272,0.9994334,15.30533,0.4329166,-40.62719
9.978440285,0.08168585,-0.09465919,0.08105618,0.005354969,-0.03063939,0.98777,15.67429,0.7977791,-40.62389
9.988519669,0.1431421,0.1443439,0.2639854,0.001018452,-0.02772513,0.9916838,15.67429,0.7977791,-40.62389
9.998599052,0.0199219,-0.2142388,0.2636922,0.004878766,-0.029172,0.9911855,15.67429,0.7977791,-40.62389
10.00867796,0.1429567,-0.0347784,0.2632843,0.002479921,-0.02963206,0.9950775,15.67429,0.7977791,-40.62389
10.01875734,-0.1034005,0.08476365,0.4459846,0.001020784,-0.02044636,0.9990274,15.67429,0.7977791,-40.62389
10.02883673,0.2044659,-0.1542833,0.6284746,-0.001883713,-0.01998726,0.9956261,15.66932,1.53906,-40.62091
10.03891563,-0.04183315,-0.09465927,0.3837014,0.002449397,-0.02048427,0.9927,15.66932,1.53906,-40.62091
10.0489955,0.08127918,0.08450077,0.5052976,1.23E-05,-0.009873528,0.9932529,15.66932,1.53906,-40.62091
10.05907488,0.1428133,0.08452599,0.2606407,0.002908407,-0.01035062,0.9937343,15.66932,1.53906,-40.62091
10.06915426,0.0810944,0.08443858,0.3213046,0.001476072,-0.01323022,0.996151,15.66932,1.53906,-40.62091
10.07923317,-0.04202855,0.2039247,0.259929,0.001454069,-0.007943442,0.9932635,15.30037,1.174198,-40.62421
10.08931255,-0.04189841,-0.09496474,0.2596408,0.002443359,-0.0132235,0.9971236,15.30037,1.174198,-40.62421
10.09939146,0.01967442,-0.09495806,0.01531165,0.000967786,-0.01183181,0.9883742,15.30037,1.174198,-40.62421
10.10947084,-0.04187052,-0.09491382,-0.1678153,-0.004324397,-0.01180877,0.9927579,15.30037,1.174198,-40.62421
10.11955023,-0.1034155,0.08430282,-0.3507889,-0.00046176,-0.0147054,0.991764,15.30533,0.4329166,-40.62719
10.12962914,0.0813524,-0.0353202,-0.2284043,-0.000933004,-0.01516702,0.9951679,15.30533,0.4329166,-40.62719
10.13970852,0.01972997,0.02430445,-0.1062692,0.000521801,-0.01611845,0.9971075,15.30533,0.4329166,-40.62719
10.1497879,-0.04185371,0.02427391,-0.3501388,0.001972568,-0.02532214,0.990238,15.30533,0.4329166,-40.62719
10.15986681,-0.1649383,-0.09531122,-0.1057535,0.003891337,-0.02243319,0.9892807,15.30533,0.4329166,-40.62719
10.16994619,-0.1649631,-0.03547986,-0.04453361,-0.002851004,-0.02435824,0.9907342,15.30285,0.8035574,-40.6257
10.18002558,0.01990145,-0.2147579,-0.1054305,-0.003799079,-0.02965773,0.9916759,15.30285,0.8035574,-40.6257
10.19010448,0.08153207,-0.03524061,0.01674178,-0.000438832,-0.02580919,0.9897501,15.30285,0.8035574,-40.6257
10.20018387,-0.1033051,-0.03506497,0.1387798,0.000534808,-0.02772848,0.9911976,15.30285,0.8035574,-40.6257
10.21026278,-0.1032333,0.08449622,0.1996158,0.002483635,-0.03544307,0.9911492,15.30285,0.8035574,-40.6257
10.22034216,0.08157302,-0.09457604,0.2603371,-0.001857067,-0.0325378,0.9936033,15.29922,0.8034935,-41.06334
10.23042154,0.02004704,-0.03472685,0.2600484,0.002946364,-0.02675619,0.9921749,15.29922,0.8034935,-41.06334
10.23798084,0.0200088,-0.09438702,0.1376869,0.003909471,-0.0223942,0.995607,15.29922,0.8034935,-41.06334
10.24805975,0.2046023,-0.09428724,0.1985626,0.005310043,-0.009884566,0.9908158,15.29922,0.8034935,-41.06334
10.25813913,0.0197847,0.02527326,0.3202955,0.001931049,-0.006984578,0.9922957,15.29922,0.8034935,-41.06334
10.26821852,-0.1650136,-0.03452647,0.01486065,0.006792124,-0.01271702,1.00053,15.29922,0.8034935,-41.06334
10.27829742,0.01967704,-0.2138245,0.01472701,0.005335151,-0.009830582,0.9995751,15.29922,0.8034935,-41.06334
10.28837681,0.08126924,0.2044444,0.07569969,0.003392673,-0.008406261,0.9961789,15.29922,0.8034935,-41.06334
10.29845572,0.01956958,0.3836228,-0.2293896,0.00387306,-0.009864653,0.9942232,15.29922,0.8034935,-41.06334
10.3085351,-0.1651704,0.2042124,-0.2902652,0.004359027,-0.01131105,0.9942141,15.29922,0.8034935,-41.06334
10.31861448,-0.2266379,0.1442818,-0.3510067,0.01160934,-0.01611917,0.9956392,14.55386,1.18569,-41.06548
10.32869434,0.1428455,0.2037935,-0.2286219,0.001000487,-0.01418608,0.9976055,14.55386,1.18569,-41.06548
10.33877325,0.1429369,0.1439196,-0.3502979,0.000987622,-0.01518358,0.9922467,14.55386,1.18569,-41.06548
10.34885263,-0.1034976,0.1437952,-0.3498771,0.000973979,-0.01860733,0.9844401,14.55386,1.18569,-41.06548
10.35893202,-0.103387,0.08379033,-0.2274552,-0.003345493,-0.01905083,0.9912532,14.55386,1.18569,-41.06548
10.36901093,-0.1032764,0.02380453,-0.4102581,-0.000924022,-0.02193654,0.9922072,15.29426,1.544774,-41.06036
10.37909031,-0.1031854,-0.03606837,-0.2268651,-0.001865436,-0.0325558,0.9906836,15.29426,1.544774,-41.06036
10.38916969,0.02000401,0.3223219,-0.2266376,-0.002829619,-0.02722176,0.9955829,15.29426,1.544774,-41.06036
10.3992486,-0.1646011,-0.09606452,-0.1654576,-0.006221331,-0.03356253,0.9843548,15.29426,1.544774,-41.06036
10.40932798,-0.04129593,-0.1558244,-0.1653073,-0.003320242,-0.03160437,0.988744,15.29426,1.544774,-41.06036
10.41940689,-0.2259788,-0.09584197,0.01789304,-0.003807603,-0.03016098,0.9882666,14.92893,1.179976,-40.62602
10.42948628,0.0204633,-0.1554332,0.1399871,-0.002328308,-0.02863516,1.000927,14.92893,1.179976,-40.62602
10.43956566,-0.04104394,0.0240283,0.1397921,-0.00377676,-0.02960975,0.999462,14.92893,1.179976,-40.62602
10.44964457,0.02039247,-0.03565719,0.261618,0.000536208,-0.02336122,0.9956037,14.92893,1.179976,-40.62602
10.45972395,-0.04130806,-0.03553732,0.07827753,0.000992735,-0.01662733,0.9927245,14.92893,1.179976,-40.62602
10.46980333,0.08174562,-0.09509177,0.2001999,0.000540548,-0.02286698,0.9975532,15.68039,0.4272022,-40.18774
10.47988224,0.2047801,0.1440807,0.2610163,0.002975039,-0.02426994,1.004355,15.68039,0.4272022,-40.18774
10.48996162,0.08146311,-0.09494688,0.2607268,0.002462262,-0.01948677,0.9980589,15.68039,0.4272022,-40.18774
10.50004101,0.1428617,0.02457693,0.2604569,0.007755067,-0.0175688,0.9956334,15.68039,0.4272022,-40.18774
10.51011992,0.01968047,0.08440783,0.1991769,0.003384139,-0.01763802,0.9849306,15.68039,0.4272022,-40.18774
10.5201993,0.08117598,0.02475904,0.1379738,0.006780805,-0.01759052,0.9922276,15.67429,0.7977791,-40.62389
10.53027821,0.01945709,-0.2738866,0.07677105,0.002456687,-0.01513451,1.000032,15.67429,0.7977791,-40.62389
10.54035759,-0.1652827,0.1443639,0.01556844,0.002940796,-0.0136754,1.001987,15.67429,0.7977791,-40.62389
10.55043697,-0.04199599,0.1442577,0.2595903,0.007281654,-0.01609542,1.000022,15.67429,0.7977791,-40.62389
10.55799627,0.1427009,0.144103,-0.1067355,0.001962346,-0.01807037,0.9932017,15.67429,0.7977791,-40.62389
10.56807518,0.01942321,0.1438469,-0.1067931,0.000983903,-0.01373682,0.9922554,14.92778,0.8092713,-41.06516
10.57815456,0.1426326,0.08406723,-0.04574446,0.001958783,-0.01613836,0.9936999,14.92778,0.8092713,-41.06516
10.58823395,0.01943242,0.08394288,0.07635286,0.000999709,-0.01661234,0.9951577,14.92778,0.8092713,-41.06516
10.59831381,0.01946604,0.2629724,-0.1067741,-0.003346577,-0.01808332,0.9917458,14.92778,0.8092713,-41.06516
10.60839272,0.01944157,0.1430311,-0.1065825,-0.001416808,-0.02001989,0.9902727,14.92778,0.8092713,-41.06516
10.6184721,0.01955254,-0.1558757,-0.1064103,-0.004336182,-0.01813803,0.9829871,14.93389,0.4386945,-40.62901
10.62855101,0.08116424,0.3222009,-0.1062575,-0.002400057,-0.01763634,0.9859083,14.93389,0.4386945,-40.62901
10.63863039,-0.04190077,0.1428489,-0.2890784,-0.002842013,-0.02239924,0.9956121,14.93389,0.4386945,-40.62901
10.64870977,-0.1033877,0.202475,-0.1057417,-0.006226898,-0.02048175,0.9941665,14.93389,0.4386945,-40.62901
10.65878868,-0.04183432,-0.03666345,-0.2276104,-0.001393561,-0.02142466,0.9970767,15.30285,0.8035574,-40.6257
10.66886807,0.08139406,0.02328187,0.1388908,-0.003838904,-0.02343944,0.9834412,15.30285,0.8035574,-40.6257
10.67894745,0.08142721,0.02329017,-0.1050758,-0.001904792,-0.0205175,0.987837,15.30285,0.8035574,-40.6257
10.68902636,0.01976604,-0.1559303,-0.1658583,5.50E-05,-0.02869335,0.991192,15.30285,0.8035574,-40.6257
10.69910574,0.0813001,-0.2156338,-0.1047738,-0.000439605,-0.02387119,0.9912217,15.30285,0.8035574,-40.6257
10.70918512,-0.04184247,-0.09592086,-0.1657292,0.001024343,-0.02674263,0.9946096,15.30647,0.8036213,-40.18806
10.71926403,0.08128919,-0.2748978,-0.04359622,-0.003316986,-0.03014262,0.9911858,15.30647,0.8036213,-40.18806
10.72934341,0.01964754,0.02394946,-0.04350311,-0.000435731,-0.02483269,0.9917026,15.30647,0.8036213,-40.18806
10.73942232,0.14276,-0.03569847,0.07847638,0.00151465,-0.02769477,0.99655,15.30647,0.8036213,-40.18806
10.74950171,-0.04211538,0.08397609,0.07832031,0.001501634,-0.02481326,0.9946209,15.30647,0.8036213,-40.18806
10.75958109,-0.04221718,-0.03560895,0.261253,0.002931024,-0.02242491,0.9907414,15.29788,1.544838,-40.62272
10.76966,0.1425126,0.02422252,0.2000103,0.004379014,-0.01854183,0.9946568,15.29788,1.544838,-40.62272
10.77973938,-0.1039214,-0.3341529,0.3217031,0.002945439,-0.02093917,0.9970764,15.29788,1.544838,-40.62272
10.78981876,-0.1654078,0.02442415,0.2602887,0.003915206,-0.02189695,0.9980431,15.29788,1.544838,-40.62272
10.79989767,-0.04214026,-0.1547978,0.01597792,0.001504428,-0.020443,0.9995136,15.29788,1.544838,-40.62272
10.80997706,-0.04204862,0.02441909,0.3208754,0.00148521,-0.01951449,0.9936798,15.30285,0.8035574,-40.6257
10.82005644,-0.04211184,-0.035342,0.2595387,0.002436998,-0.02002601,0.9888098,15.30285,0.8035574,-40.6257
10.83013535,-0.1036952,0.08405063,0.1983365,0.001961106,-0.01758812,0.9932046,15.30285,0.8035574,-40.6257
10.84021473,0.2658658,0.02417713,0.07612418,0.004367548,-0.01517206,0.993704,15.30285,0.8035574,-40.6257
10.85029364,0.01950902,0.2631435,0.1370006,-0.002373243,-0.01660886,0.9961335,15.30285,0.8035574,-40.6257
10.86037302,-0.04219044,0.382499,0.07585652,0.002912432,-0.01519114,0.9907854,14.93504,0.8093991,-40.18987
10.8704524,-0.1037931,0.2628016,0.01473173,2.53E-05,-0.0171193,0.9912624,14.93504,0.8093991,-40.18987
10.87801218,-0.1653122,0.02368868,-0.04635,-0.000924484,-0.01902803,0.9946579,14.93504,0.8093991,-40.18987
10.88809156,-0.04218013,0.202869,0.01483358,1.52E-05,-0.0181108,0.9868769,14.93504,0.8093991,-40.18987
10.89817047,0.2041278,0.2028206,-0.1681586,-0.005274021,-0.01759651,0.9927235,14.93504,0.8093991,-40.18987
10.90824986,-0.1039231,0.142948,-0.1679474,-0.003832703,-0.02148644,0.9873459,15.29922,0.8034935,-41.06334
10.91832924,0.01924787,0.0831506,-0.04575408,-0.002859365,-0.01564771,0.9956532,15.29922,0.8034935,-41.06334
10.92840815,-0.2270893,0.08313995,-0.1066111,-0.000922471,-0.02144829,0.9931834,15.29922,0.8034935,-41.06334
10.93848753,0.08075839,-0.03623769,-0.04539022,-0.001407665,-0.0219399,0.9917209,15.29922,0.8034935,-41.06334
10.94856644,-0.04236417,0.02361328,-0.1063052,0.00053109,-0.02628173,0.9912063,15.29922,0.8034935,-41.06334
10.95864582,0.01926728,-0.09580215,0.01586821,0.000525048,-0.02338522,0.9917106,14.92167,1.179848,-41.5013
10.9687252,-0.165453,-0.03591386,-0.1671253,0.001489857,-0.022414,0.9926891,14.92167,1.179848,-41.5013
10.97880411,0.1423946,-0.1552358,-0.1059242,0.002927923,-0.02340141,0.988789,14.92167,1.179848,-41.5013
10.9888835,0.2654303,-0.03557996,-0.1058103,0.002476051,-0.02430629,0.9985163,14.92167,1.179848,-41.5013
10.99896288,-0.1040825,0.02425142,0.0773728,0.004403652,-0.02430785,0.9980281,14.92167,1.179848,-41.5013
11.00904179,0.2038814,-0.03545315,-0.04464923,0.004391097,-0.02433485,0.9936483,15.29922,0.8034935,-41.06334
11.01912117,-0.0425329,0.02426554,0.07742754,0.003445507,-0.02623458,0.9985038,15.29922,0.8034935,-41.06334
11.02920055,-0.1040964,0.1437709,0.0773686,0.004400396,-0.02576961,0.9955862,15.29922,0.8034935,-41.06334
11.03927946,0.08069172,0.1436654,0.1383393,0.004403341,-0.02527836,0.9970489,15.29922,0.8034935,-41.06334
11.04935885,0.01901214,0.08373573,0.1992142,0.004406282,-0.02915137,0.9945924,15.29922,0.8034935,-41.06334
11.05943823,-0.1041296,0.1433985,0.1379919,0.004866221,-0.02047047,0.9946447,14.92778,0.8092713,-41.06516
11.06951714,-0.04257526,-0.03604794,0.2598968,0.000524586,-0.02047671,0.9941614,14.92778,0.8092713,-41.06516
11.07959652,-0.04263783,0.08351446,0.1375497,-0.001414173,-0.02049914,0.9907565,14.92778,0.8092713,-41.06516
11.08967543,-0.04266164,0.2028704,0.1983106,0.00387801,-0.02052218,0.9863726,14.92778,0.8092713,-41.06516
11.09975481,-0.1656872,-0.09599902,0.1370128,-0.001410455,-0.0219459,0.9907477,14.92778,0.8092713,-41.06516
11.10983419,0.1422768,-0.2153956,0.07583038,2.33E-05,-0.01906331,0.9888175,15.29922,0.8034935,-41.06334
11.1199131,0.0806939,-0.03610266,0.1977367,0.001483815,-0.01951749,0.9931932,15.29922,0.8034935,-41.06334
11.12999249,0.01909166,0.1431714,0.01447643,-0.00286371,-0.02050622,0.9897842,15.29922,0.8034935,-41.06334
11.14007187,-0.2887655,-0.09583624,0.01449657,-0.003350605,-0.01760707,0.9907755,15.29922,0.8034935,-41.06334
11.15015078,0.1423354,0.0834754,0.136384,-0.001381162,-0.02188292,1.000967,14.92778,0.8092713,-41.06516
11.16023016,0.1422921,0.02358383,0.07527903,0.002920802,-0.01517314,0.993705,14.92778,0.8092713,-41.06516
11.17030954,0.08070915,-0.09605674,-0.0467404,-0.005756891,-0.01953788,0.9907656,14.92778,0.8092713,-41.06516
